experiment,subject,date,block,trial,face_left,face_top,face_right,cue_dir,target_id,target_pos,cue_num,correct_response,rt
mGCP-III,1,2018-01-09_18:26,1,1,61_Caucasian_female_neutral_right.jpg,37_Caucasian_female_neutral_right.jpg,26_Caucasian_female_neutral_right.jpg,cue_right,target_F,target_right,cue_3,99,99
mGCP-III,1,2018-01-09_18:26,1,2,61_Caucasian_female_neutral_left.jpg,37_Caucasian_female_neutral_left.jpg,26_Caucasian_female_neutral_left.jpg,cue_left,target_F,target_right,cue_3,1,0.38455846536089666
mGCP-III,1,2018-01-09_18:26,1,3,61_Caucasian_female_neutral_left.jpg,37_Caucasian_female_neutral_left.jpg,26_Caucasian_female_neutral_left.jpg,cue_left,target_F,target_left,cue_3,0,0.4229197341537656
mGCP-III,1,2018-01-09_18:26,1,4,61_Caucasian_female_neutral_left.jpg,26_Caucasian_female_neutral_left.jpg,37_Caucasian_female_neutral_left.jpg,cue_left,target_E,target_right,cue_3,1,0.4902982754374534
mGCP-III,1,2018-01-09_18:26,1,5,26_Caucasian_female_neutral_left.jpg,61_Caucasian_female_neutral_left.jpg,37_Caucasian_female_neutral_left.jpg,cue_left,target_E,target_right,cue_3,0,0.4153341569053737
mGCP-III,1,2018-01-09_18:26,1,6,61_Caucasian_female_neutral_left.jpg,26_Caucasian_female_neutral_left.jpg,37_Caucasian_female_neutral_left.jpg,cue_left,target_F,target_left,cue_3,0,0.5320258638912492
mGCP-III,1,2018-01-09_18:26,1,7,37_Caucasian_female_neutral_left.jpg,26_Caucasian_female_neutral_left.jpg,61_Caucasian_female_neutral_left.jpg,cue_left,target_E,target_right,cue_3,1,0.5311401358449075
mGCP-III,1,2018-01-09_18:26,1,8,61_Caucasian_female_neutral_right.jpg,37_Caucasian_female_neutral_right.jpg,26_Caucasian_female_neutral_right.jpg,cue_right,target_E,target_right,cue_3,1,0.7244200594886934
mGCP-III,1,2018-01-09_18:26,1,9,61_Caucasian_female_neutral_left.jpg,37_Caucasian_female_neutral_left.jpg,26_Caucasian_female_neutral_left.jpg,cue_left,target_E,target_left,cue_3,1,0.5905530506461218
mGCP-III,1,2018-01-09_18:26,1,10,61_Caucasian_female_neutral_right.jpg,26_Caucasian_female_neutral_right.jpg,37_Caucasian_female_neutral_right.jpg,cue_right,target_F,target_left,cue_3,1,0.6334338238284545
mGCP-III,1,2018-01-09_18:26,1,11,37_Caucasian_female_neutral_right.jpg,26_Caucasian_female_neutral_right.jpg,61_Caucasian_female_neutral_right.jpg,cue_right,target_F,target_left,cue_3,0,0.5328641845480888
mGCP-III,1,2018-01-09_18:26,1,12,26_Caucasian_female_neutral_left.jpg,37_Caucasian_female_neutral_left.jpg,61_Caucasian_female_neutral_left.jpg,cue_left,target_F,target_left,cue_3,1,0.5813528567505273
mGCP-III,1,2018-01-09_18:26,1,13,37_Caucasian_female_neutral_left.jpg,26_Caucasian_female_neutral_left.jpg,61_Caucasian_female_neutral_left.jpg,cue_left,target_E,target_left,cue_3,1,0.6736961289116152
mGCP-III,1,2018-01-09_18:26,1,14,61_Caucasian_female_neutral_right.jpg,37_Caucasian_female_neutral_right.jpg,26_Caucasian_female_neutral_right.jpg,cue_right,target_F,target_left,cue_3,1,0.6885603205682855
mGCP-III,1,2018-01-09_18:26,1,15,37_Caucasian_female_neutral_right.jpg,61_Caucasian_female_neutral_right.jpg,26_Caucasian_female_neutral_right.jpg,cue_right,target_F,target_right,cue_3,1,0.6377151060878532
mGCP-III,1,2018-01-09_18:27,1,16,61_Caucasian_female_neutral_right.jpg,37_Caucasian_female_neutral_right.jpg,26_Caucasian_female_neutral_right.jpg,cue_right,target_E,target_left,cue_3,1,0.4892284486995777
mGCP-III,1,2018-01-09_18:27,1,17,26_Caucasian_female_neutral_left.jpg,37_Caucasian_female_neutral_left.jpg,61_Caucasian_female_neutral_left.jpg,cue_left,target_E,target_right,cue_3,1,0.5607381488443934
mGCP-III,1,2018-01-09_18:27,1,18,61_Caucasian_female_neutral_right.jpg,26_Caucasian_female_neutral_right.jpg,37_Caucasian_female_neutral_right.jpg,cue_right,target_E,target_right,cue_3,1,0.4317450146190822
mGCP-III,1,2018-01-09_18:27,1,19,61_Caucasian_female_neutral_left.jpg,37_Caucasian_female_neutral_left.jpg,26_Caucasian_female_neutral_left.jpg,cue_left,target_E,target_left,cue_3,1,0.3060727679712727
mGCP-III,1,2018-01-09_18:27,1,20,61_Caucasian_female_neutral_right.jpg,26_Caucasian_female_neutral_right.jpg,37_Caucasian_female_neutral_right.jpg,cue_right,target_F,target_left,cue_3,0,0.45791547341468686
mGCP-III,1,2018-01-09_18:27,1,21,37_Caucasian_female_neutral_left.jpg,61_Caucasian_female_neutral_left.jpg,26_Caucasian_female_neutral_left.jpg,cue_left,target_F,target_left,cue_3,1,0.5795221414246043
mGCP-III,1,2018-01-09_18:27,1,22,26_Caucasian_female_neutral_right.jpg,61_Caucasian_female_neutral_right.jpg,37_Caucasian_female_neutral_right.jpg,cue_right,target_F,target_right,cue_3,0,0.5280009765920113
mGCP-III,1,2018-01-09_18:27,1,23,26_Caucasian_female_neutral_right.jpg,37_Caucasian_female_neutral_right.jpg,61_Caucasian_female_neutral_right.jpg,cue_right,target_E,target_right,cue_3,1,0.5792068822902365
mGCP-III,1,2018-01-09_18:27,1,24,26_Caucasian_female_neutral_left.jpg,37_Caucasian_female_neutral_left.jpg,61_Caucasian_female_neutral_left.jpg,cue_left,target_F,target_right,cue_3,0,0.6074316612612165
mGCP-III,1,2018-01-09_18:27,1,25,26_Caucasian_female_neutral_right.jpg,61_Caucasian_female_neutral_right.jpg,37_Caucasian_female_neutral_right.jpg,cue_right,target_F,target_right,cue_3,1,0.7114493979461258
mGCP-III,1,2018-01-09_18:27,1,26,61_Caucasian_female_neutral_right.jpg,37_Caucasian_female_neutral_right.jpg,26_Caucasian_female_neutral_right.jpg,cue_right,target_E,target_right,cue_3,1,0.5860027314556646
mGCP-III,1,2018-01-09_18:27,1,27,26_Caucasian_female_neutral_left.jpg,61_Caucasian_female_neutral_left.jpg,37_Caucasian_female_neutral_left.jpg,cue_left,target_E,target_left,cue_3,1,0.7559025161863246
mGCP-III,1,2018-01-09_18:27,1,28,37_Caucasian_female_neutral_right.jpg,61_Caucasian_female_neutral_right.jpg,26_Caucasian_female_neutral_right.jpg,cue_right,target_E,target_left,cue_3,1,0.4054524817966012
mGCP-III,1,2018-01-09_18:27,1,29,26_Caucasian_female_neutral_left.jpg,61_Caucasian_female_neutral_left.jpg,37_Caucasian_female_neutral_left.jpg,cue_left,target_E,target_right,cue_3,1,0.42155756185275095
mGCP-III,1,2018-01-09_18:27,1,30,61_Caucasian_female_neutral_left.jpg,26_Caucasian_female_neutral_left.jpg,37_Caucasian_female_neutral_left.jpg,cue_left,target_F,target_left,cue_3,1,0.6390911055441393
mGCP-III,1,2018-01-09_18:27,1,31,37_Caucasian_female_neutral_right.jpg,26_Caucasian_female_neutral_right.jpg,61_Caucasian_female_neutral_right.jpg,cue_right,target_E,target_left,cue_3,99,99
mGCP-III,1,2018-01-09_18:27,1,32,26_Caucasian_female_neutral_left.jpg,61_Caucasian_female_neutral_left.jpg,37_Caucasian_female_neutral_left.jpg,cue_left,target_F,target_left,cue_3,1,0.5019861720556946
mGCP-III,1,2018-01-09_18:27,1,33,26_Caucasian_female_neutral_left.jpg,37_Caucasian_female_neutral_left.jpg,61_Caucasian_female_neutral_left.jpg,cue_left,target_E,target_left,cue_3,1,0.562194345799071
mGCP-III,1,2018-01-09_18:27,1,34,61_Caucasian_female_neutral_right.jpg,37_Caucasian_female_neutral_right.jpg,26_Caucasian_female_neutral_right.jpg,cue_right,target_F,target_right,cue_3,1,0.47944356367588625
mGCP-III,1,2018-01-09_18:27,1,35,37_Caucasian_female_neutral_right.jpg,61_Caucasian_female_neutral_right.jpg,26_Caucasian_female_neutral_right.jpg,cue_right,target_F,target_right,cue_3,1,0.4159619097445102
mGCP-III,1,2018-01-09_18:27,1,36,37_Caucasian_female_neutral_left.jpg,61_Caucasian_female_neutral_left.jpg,26_Caucasian_female_neutral_left.jpg,cue_left,target_E,target_left,cue_3,1,0.38312478691477736
mGCP-III,1,2018-01-09_18:27,1,37,26_Caucasian_female_neutral_right.jpg,37_Caucasian_female_neutral_right.jpg,61_Caucasian_female_neutral_right.jpg,cue_right,target_E,target_right,cue_3,0,0.3602056848576467
mGCP-III,1,2018-01-09_18:27,1,38,37_Caucasian_female_neutral_left.jpg,61_Caucasian_female_neutral_left.jpg,26_Caucasian_female_neutral_left.jpg,cue_left,target_F,target_right,cue_3,1,0.594843419319659
mGCP-III,1,2018-01-09_18:27,1,39,37_Caucasian_female_neutral_left.jpg,61_Caucasian_female_neutral_left.jpg,26_Caucasian_female_neutral_left.jpg,cue_left,target_F,target_right,cue_3,99,99
mGCP-III,1,2018-01-09_18:27,1,40,61_Caucasian_female_neutral_left.jpg,26_Caucasian_female_neutral_left.jpg,37_Caucasian_female_neutral_left.jpg,cue_left,target_E,target_left,cue_3,1,0.4297290154154325
mGCP-III,1,2018-01-09_18:27,1,41,61_Caucasian_female_neutral_left.jpg,37_Caucasian_female_neutral_left.jpg,26_Caucasian_female_neutral_left.jpg,cue_left,target_E,target_right,cue_3,0,0.5804343385934772
mGCP-III,1,2018-01-09_18:27,1,42,61_Caucasian_female_neutral_right.jpg,26_Caucasian_female_neutral_right.jpg,37_Caucasian_female_neutral_right.jpg,cue_right,target_E,target_left,cue_3,1,0.6480451760799042
mGCP-III,1,2018-01-09_18:27,1,43,61_Caucasian_female_neutral_right.jpg,37_Caucasian_female_neutral_right.jpg,26_Caucasian_female_neutral_right.jpg,cue_right,target_E,target_left,cue_3,1,0.3743706175337138
mGCP-III,1,2018-01-09_18:27,1,44,37_Caucasian_female_neutral_right.jpg,61_Caucasian_female_neutral_right.jpg,26_Caucasian_female_neutral_right.jpg,cue_right,target_E,target_right,cue_3,1,0.605173489313529
mGCP-III,1,2018-01-09_18:28,1,45,37_Caucasian_female_neutral_left.jpg,61_Caucasian_female_neutral_left.jpg,26_Caucasian_female_neutral_left.jpg,cue_left,target_E,target_right,cue_3,1,0.48453867277385143
mGCP-III,1,2018-01-09_18:28,1,46,61_Caucasian_female_neutral_left.jpg,26_Caucasian_female_neutral_left.jpg,37_Caucasian_female_neutral_left.jpg,cue_left,target_E,target_left,cue_3,1,0.4430457508951804
mGCP-III,1,2018-01-09_18:28,1,47,37_Caucasian_female_neutral_left.jpg,26_Caucasian_female_neutral_left.jpg,61_Caucasian_female_neutral_left.jpg,cue_left,target_F,target_left,cue_3,0,0.2951560315432289
mGCP-III,1,2018-01-09_18:28,1,48,37_Caucasian_female_neutral_left.jpg,26_Caucasian_female_neutral_left.jpg,61_Caucasian_female_neutral_left.jpg,cue_left,target_E,target_left,cue_3,1,0.7111365091805055
mGCP-III,1,2018-01-09_18:28,1,49,26_Caucasian_female_neutral_right.jpg,37_Caucasian_female_neutral_right.jpg,61_Caucasian_female_neutral_right.jpg,cue_right,target_E,target_left,cue_3,1,0.4591859914326051
mGCP-III,1,2018-01-09_18:28,1,50,26_Caucasian_female_neutral_right.jpg,61_Caucasian_female_neutral_right.jpg,37_Caucasian_female_neutral_right.jpg,cue_right,target_F,target_left,cue_3,1,0.6123620296839363
mGCP-III,1,2018-01-09_18:28,1,51,26_Caucasian_female_neutral_right.jpg,61_Caucasian_female_neutral_right.jpg,37_Caucasian_female_neutral_right.jpg,cue_right,target_E,target_right,cue_3,1,0.4941872615563625
mGCP-III,1,2018-01-09_18:28,1,52,61_Caucasian_female_neutral_right.jpg,26_Caucasian_female_neutral_right.jpg,37_Caucasian_female_neutral_right.jpg,cue_right,target_E,target_left,cue_3,1,0.4977364947226306
mGCP-III,1,2018-01-09_18:28,1,53,37_Caucasian_female_neutral_left.jpg,61_Caucasian_female_neutral_left.jpg,26_Caucasian_female_neutral_left.jpg,cue_left,target_E,target_left,cue_3,1,0.3751010863798001
mGCP-III,1,2018-01-09_18:28,1,54,37_Caucasian_female_neutral_left.jpg,26_Caucasian_female_neutral_left.jpg,61_Caucasian_female_neutral_left.jpg,cue_left,target_F,target_left,cue_3,0,0.3907364382266678
mGCP-III,1,2018-01-09_18:28,1,55,61_Caucasian_female_neutral_right.jpg,26_Caucasian_female_neutral_right.jpg,37_Caucasian_female_neutral_right.jpg,cue_right,target_E,target_right,cue_3,1,0.5607484204447246
mGCP-III,1,2018-01-09_18:28,1,56,37_Caucasian_female_neutral_right.jpg,61_Caucasian_female_neutral_right.jpg,26_Caucasian_female_neutral_right.jpg,cue_right,target_E,target_right,cue_3,1,0.41330946634661814
mGCP-III,1,2018-01-09_18:28,1,57,26_Caucasian_female_neutral_right.jpg,37_Caucasian_female_neutral_right.jpg,61_Caucasian_female_neutral_right.jpg,cue_right,target_F,target_right,cue_3,1,0.5398413669754518
mGCP-III,1,2018-01-09_18:28,1,58,26_Caucasian_female_neutral_left.jpg,37_Caucasian_female_neutral_left.jpg,61_Caucasian_female_neutral_left.jpg,cue_left,target_F,target_right,cue_3,1,0.3975125343149557
mGCP-III,1,2018-01-09_18:28,1,59,61_Caucasian_female_neutral_left.jpg,26_Caucasian_female_neutral_left.jpg,37_Caucasian_female_neutral_left.jpg,cue_left,target_E,target_right,cue_3,1,0.3352038181910757
mGCP-III,1,2018-01-09_18:28,1,60,61_Caucasian_female_neutral_right.jpg,37_Caucasian_female_neutral_right.jpg,26_Caucasian_female_neutral_right.jpg,cue_right,target_F,target_left,cue_3,1,0.5622358272648853
mGCP-III,1,2018-01-09_18:28,1,61,26_Caucasian_female_neutral_right.jpg,61_Caucasian_female_neutral_right.jpg,37_Caucasian_female_neutral_right.jpg,cue_right,target_E,target_left,cue_3,0,0.4492197731469787
mGCP-III,1,2018-01-09_18:28,1,62,37_Caucasian_female_neutral_right.jpg,26_Caucasian_female_neutral_right.jpg,61_Caucasian_female_neutral_right.jpg,cue_right,target_F,target_right,cue_3,1,0.5426040325510257
mGCP-III,1,2018-01-09_18:28,1,63,37_Caucasian_female_neutral_right.jpg,26_Caucasian_female_neutral_right.jpg,61_Caucasian_female_neutral_right.jpg,cue_right,target_F,target_right,cue_3,1,0.3845936258385336
mGCP-III,1,2018-01-09_18:28,1,64,37_Caucasian_female_neutral_left.jpg,61_Caucasian_female_neutral_left.jpg,26_Caucasian_female_neutral_left.jpg,cue_left,target_E,target_right,cue_3,1,0.6179667682099534
mGCP-III,1,2018-01-09_18:28,1,65,26_Caucasian_female_neutral_right.jpg,61_Caucasian_female_neutral_right.jpg,37_Caucasian_female_neutral_right.jpg,cue_right,target_E,target_right,cue_3,1,0.6318994046832813
mGCP-III,1,2018-01-09_18:28,1,66,26_Caucasian_female_neutral_left.jpg,37_Caucasian_female_neutral_left.jpg,61_Caucasian_female_neutral_left.jpg,cue_left,target_E,target_left,cue_3,0,0.3169338007173792
mGCP-III,1,2018-01-09_18:28,1,67,26_Caucasian_female_neutral_left.jpg,61_Caucasian_female_neutral_left.jpg,37_Caucasian_female_neutral_left.jpg,cue_left,target_E,target_left,cue_3,1,0.5341354926877102
mGCP-III,1,2018-01-09_18:28,1,68,37_Caucasian_female_neutral_right.jpg,61_Caucasian_female_neutral_right.jpg,26_Caucasian_female_neutral_right.jpg,cue_right,target_F,target_left,cue_3,1,0.4605292007781827
mGCP-III,1,2018-01-09_18:28,1,69,37_Caucasian_female_neutral_right.jpg,26_Caucasian_female_neutral_right.jpg,61_Caucasian_female_neutral_right.jpg,cue_right,target_F,target_left,cue_3,1,0.5165410305035039
mGCP-III,1,2018-01-09_18:28,1,70,26_Caucasian_female_neutral_right.jpg,61_Caucasian_female_neutral_right.jpg,37_Caucasian_female_neutral_right.jpg,cue_right,target_E,target_left,cue_3,1,0.334056164323556
mGCP-III,1,2018-01-09_18:28,1,71,61_Caucasian_female_neutral_left.jpg,37_Caucasian_female_neutral_left.jpg,26_Caucasian_female_neutral_left.jpg,cue_left,target_F,target_right,cue_3,1,0.6372959457603429
mGCP-III,1,2018-01-09_18:28,1,72,26_Caucasian_female_neutral_right.jpg,61_Caucasian_female_neutral_right.jpg,37_Caucasian_female_neutral_right.jpg,cue_right,target_F,target_left,cue_3,1,0.5934492470332771
mGCP-III,1,2018-01-09_18:28,1,73,37_Caucasian_female_neutral_left.jpg,26_Caucasian_female_neutral_left.jpg,61_Caucasian_female_neutral_left.jpg,cue_left,target_F,target_right,cue_3,1,0.5977917638338113
mGCP-III,1,2018-01-09_18:28,1,74,61_Caucasian_female_neutral_right.jpg,26_Caucasian_female_neutral_right.jpg,37_Caucasian_female_neutral_right.jpg,cue_right,target_F,target_right,cue_3,1,0.3597738825592387
mGCP-III,1,2018-01-09_18:28,1,75,61_Caucasian_female_neutral_right.jpg,26_Caucasian_female_neutral_right.jpg,37_Caucasian_female_neutral_right.jpg,cue_right,target_F,target_right,cue_3,1,0.438445258885622
mGCP-III,1,2018-01-09_18:28,1,76,61_Caucasian_female_neutral_left.jpg,26_Caucasian_female_neutral_left.jpg,37_Caucasian_female_neutral_left.jpg,cue_left,target_F,target_right,cue_3,1,0.46131379306098097
mGCP-III,1,2018-01-09_18:29,1,77,37_Caucasian_female_neutral_left.jpg,26_Caucasian_female_neutral_left.jpg,61_Caucasian_female_neutral_left.jpg,cue_left,target_F,target_right,cue_3,1,0.37474829639540985
mGCP-III,1,2018-01-09_18:29,1,78,26_Caucasian_female_neutral_left.jpg,61_Caucasian_female_neutral_left.jpg,37_Caucasian_female_neutral_left.jpg,cue_left,target_F,target_left,cue_3,1,0.5309635433222866
mGCP-III,1,2018-01-09_18:29,1,79,26_Caucasian_female_neutral_right.jpg,37_Caucasian_female_neutral_right.jpg,61_Caucasian_female_neutral_right.jpg,cue_right,target_F,target_left,cue_3,1,0.5978474675175676
mGCP-III,1,2018-01-09_18:29,1,80,37_Caucasian_female_neutral_right.jpg,26_Caucasian_female_neutral_right.jpg,61_Caucasian_female_neutral_right.jpg,cue_right,target_E,target_right,cue_3,1,0.5018581721051305
mGCP-III,1,2018-01-09_18:29,1,81,37_Caucasian_female_neutral_right.jpg,61_Caucasian_female_neutral_right.jpg,26_Caucasian_female_neutral_right.jpg,cue_right,target_F,target_left,cue_3,1,0.4441586393440957
mGCP-III,1,2018-01-09_18:29,1,82,37_Caucasian_female_neutral_right.jpg,26_Caucasian_female_neutral_right.jpg,61_Caucasian_female_neutral_right.jpg,cue_right,target_E,target_left,cue_3,0,0.34639867796613544
mGCP-III,1,2018-01-09_18:29,1,83,37_Caucasian_female_neutral_right.jpg,26_Caucasian_female_neutral_right.jpg,61_Caucasian_female_neutral_right.jpg,cue_right,target_E,target_right,cue_3,1,0.3933861161931418
mGCP-III,1,2018-01-09_18:29,1,84,26_Caucasian_female_neutral_right.jpg,37_Caucasian_female_neutral_right.jpg,61_Caucasian_female_neutral_right.jpg,cue_right,target_F,target_right,cue_3,1,0.5522885719365149
mGCP-III,1,2018-01-09_18:29,1,85,26_Caucasian_female_neutral_left.jpg,37_Caucasian_female_neutral_left.jpg,61_Caucasian_female_neutral_left.jpg,cue_left,target_F,target_left,cue_3,0,0.3584002534717001
mGCP-III,1,2018-01-09_18:29,1,86,61_Caucasian_female_neutral_left.jpg,37_Caucasian_female_neutral_left.jpg,26_Caucasian_female_neutral_left.jpg,cue_left,target_F,target_left,cue_3,1,0.6074308711376943
mGCP-III,1,2018-01-09_18:29,1,87,26_Caucasian_female_neutral_left.jpg,61_Caucasian_female_neutral_left.jpg,37_Caucasian_female_neutral_left.jpg,cue_left,target_F,target_right,cue_3,1,0.48447704317004536
mGCP-III,1,2018-01-09_18:29,1,88,26_Caucasian_female_neutral_left.jpg,61_Caucasian_female_neutral_left.jpg,37_Caucasian_female_neutral_left.jpg,cue_left,target_F,target_right,cue_3,1,0.47940484764330904
mGCP-III,1,2018-01-09_18:29,1,89,37_Caucasian_female_neutral_right.jpg,61_Caucasian_female_neutral_right.jpg,26_Caucasian_female_neutral_right.jpg,cue_right,target_E,target_left,cue_3,1,0.4941054838091077
mGCP-III,1,2018-01-09_18:29,1,90,37_Caucasian_female_neutral_left.jpg,26_Caucasian_female_neutral_left.jpg,61_Caucasian_female_neutral_left.jpg,cue_left,target_E,target_right,cue_3,1,0.7828393944346317
mGCP-III,1,2018-01-09_18:29,1,91,61_Caucasian_female_neutral_left.jpg,26_Caucasian_female_neutral_left.jpg,37_Caucasian_female_neutral_left.jpg,cue_left,target_F,target_right,cue_3,1,0.47728692255259375
mGCP-III,1,2018-01-09_18:29,1,92,61_Caucasian_female_neutral_left.jpg,37_Caucasian_female_neutral_left.jpg,26_Caucasian_female_neutral_left.jpg,cue_left,target_E,target_right,cue_3,1,0.45130451306431496
mGCP-III,1,2018-01-09_18:29,1,93,37_Caucasian_female_neutral_left.jpg,61_Caucasian_female_neutral_left.jpg,26_Caucasian_female_neutral_left.jpg,cue_left,target_F,target_left,cue_3,1,0.3975773244146694
mGCP-III,1,2018-01-09_18:29,1,94,26_Caucasian_female_neutral_right.jpg,37_Caucasian_female_neutral_right.jpg,61_Caucasian_female_neutral_right.jpg,cue_right,target_E,target_left,cue_3,1,0.6707884757379361
mGCP-III,1,2018-01-09_18:29,1,95,26_Caucasian_female_neutral_left.jpg,37_Caucasian_female_neutral_left.jpg,61_Caucasian_female_neutral_left.jpg,cue_left,target_E,target_right,cue_3,1,0.441031331938575
mGCP-III,1,2018-01-09_18:29,1,96,26_Caucasian_female_neutral_right.jpg,37_Caucasian_female_neutral_right.jpg,61_Caucasian_female_neutral_right.jpg,cue_right,target_F,target_left,cue_3,1,0.699256217576476
mGCP-III,1,2018-01-09_18:29,2,97,99,61_Caucasian_female_neutral_left.jpg,99,cue_left,target_E,target_left,cue_1,1,0.47565413307529525
mGCP-III,1,2018-01-09_18:29,2,98,99,26_Caucasian_female_neutral_right.jpg,99,cue_right,target_E,target_left,cue_1,1,0.366360744154008
mGCP-III,1,2018-01-09_18:29,2,99,99,26_Caucasian_female_neutral_left.jpg,99,cue_left,target_F,target_right,cue_1,1,0.38520715646154713
mGCP-III,1,2018-01-09_18:29,2,100,99,61_Caucasian_female_neutral_right.jpg,99,cue_right,target_F,target_right,cue_1,1,0.41698669946345035
mGCP-III,1,2018-01-09_18:29,2,101,99,61_Caucasian_female_neutral_right.jpg,99,cue_right,target_E,target_right,cue_1,0,0.33064401752380945
mGCP-III,1,2018-01-09_18:29,2,102,99,26_Caucasian_female_neutral_right.jpg,99,cue_right,target_F,target_right,cue_1,99,99
mGCP-III,1,2018-01-09_18:29,2,103,99,26_Caucasian_female_neutral_left.jpg,99,cue_left,target_E,target_right,cue_1,1,0.5816689060065983
mGCP-III,1,2018-01-09_18:30,2,104,99,37_Caucasian_female_neutral_left.jpg,99,cue_left,target_F,target_left,cue_1,1,0.5377878369235987
mGCP-III,1,2018-01-09_18:30,2,105,99,37_Caucasian_female_neutral_right.jpg,99,cue_right,target_F,target_right,cue_1,1,0.41039588725107023
mGCP-III,1,2018-01-09_18:30,2,106,99,61_Caucasian_female_neutral_left.jpg,99,cue_left,target_E,target_right,cue_1,0,0.3712919027002499
mGCP-III,1,2018-01-09_18:30,2,107,99,26_Caucasian_female_neutral_right.jpg,99,cue_right,target_F,target_left,cue_1,1,0.40111905141020543
mGCP-III,1,2018-01-09_18:30,2,108,99,37_Caucasian_female_neutral_right.jpg,99,cue_right,target_E,target_right,cue_1,1,0.3375473234391393
mGCP-III,1,2018-01-09_18:30,2,109,99,37_Caucasian_female_neutral_right.jpg,99,cue_right,target_E,target_right,cue_1,0,0.437921407241447
mGCP-III,1,2018-01-09_18:30,2,110,99,37_Caucasian_female_neutral_right.jpg,99,cue_right,target_F,target_right,cue_1,1,0.3298720672100899
mGCP-III,1,2018-01-09_18:30,2,111,99,61_Caucasian_female_neutral_right.jpg,99,cue_right,target_E,target_right,cue_1,1,0.33427779386511247
mGCP-III,1,2018-01-09_18:30,2,112,99,61_Caucasian_female_neutral_right.jpg,99,cue_right,target_E,target_right,cue_1,1,0.2825677896034904
mGCP-III,1,2018-01-09_18:30,2,113,99,61_Caucasian_female_neutral_left.jpg,99,cue_left,target_F,target_left,cue_1,1,0.426786596824968
mGCP-III,1,2018-01-09_18:30,2,114,99,61_Caucasian_female_neutral_left.jpg,99,cue_left,target_E,target_right,cue_1,1,0.525378162814377
mGCP-III,1,2018-01-09_18:30,2,115,99,26_Caucasian_female_neutral_left.jpg,99,cue_left,target_E,target_right,cue_1,1,0.35588213100891153
mGCP-III,1,2018-01-09_18:30,2,116,99,37_Caucasian_female_neutral_right.jpg,99,cue_right,target_F,target_left,cue_1,1,0.40850117195077473
mGCP-III,1,2018-01-09_18:30,2,117,99,37_Caucasian_female_neutral_right.jpg,99,cue_right,target_E,target_left,cue_1,0,0.36051225263690867
mGCP-III,1,2018-01-09_18:30,2,118,99,37_Caucasian_female_neutral_right.jpg,99,cue_right,target_E,target_right,cue_1,1,0.5979177884782985
mGCP-III,1,2018-01-09_18:30,2,119,99,61_Caucasian_female_neutral_left.jpg,99,cue_left,target_E,target_left,cue_1,1,0.3788130849134177
mGCP-III,1,2018-01-09_18:30,2,120,99,37_Caucasian_female_neutral_left.jpg,99,cue_left,target_E,target_right,cue_1,1,0.7153028285210894
mGCP-III,1,2018-01-09_18:30,2,121,99,26_Caucasian_female_neutral_left.jpg,99,cue_left,target_F,target_left,cue_1,1,0.5211055719082651
mGCP-III,1,2018-01-09_18:30,2,122,99,37_Caucasian_female_neutral_left.jpg,99,cue_left,target_E,target_left,cue_1,0,0.4685667284666124
mGCP-III,1,2018-01-09_18:30,2,123,99,61_Caucasian_female_neutral_right.jpg,99,cue_right,target_E,target_left,cue_1,1,0.4150524780034175
mGCP-III,1,2018-01-09_18:30,2,124,99,61_Caucasian_female_neutral_left.jpg,99,cue_left,target_F,target_left,cue_1,1,0.6038362058916391
mGCP-III,1,2018-01-09_18:30,2,125,99,26_Caucasian_female_neutral_right.jpg,99,cue_right,target_E,target_left,cue_1,1,0.45217522877101146
mGCP-III,1,2018-01-09_18:30,2,126,99,61_Caucasian_female_neutral_right.jpg,99,cue_right,target_F,target_left,cue_1,1,0.4867905237369996
mGCP-III,1,2018-01-09_18:30,2,127,99,61_Caucasian_female_neutral_left.jpg,99,cue_left,target_F,target_right,cue_1,0,0.32794377167556377
mGCP-III,1,2018-01-09_18:30,2,128,99,37_Caucasian_female_neutral_right.jpg,99,cue_right,target_E,target_right,cue_1,1,0.3918963390042336
mGCP-III,1,2018-01-09_18:30,2,129,99,26_Caucasian_female_neutral_left.jpg,99,cue_left,target_F,target_right,cue_1,1,0.5373098124200624
mGCP-III,1,2018-01-09_18:30,2,130,99,26_Caucasian_female_neutral_right.jpg,99,cue_right,target_E,target_right,cue_1,1,0.42699400415040145
mGCP-III,1,2018-01-09_18:30,2,131,99,61_Caucasian_female_neutral_left.jpg,99,cue_left,target_E,target_left,cue_1,0,0.3133573083032388
mGCP-III,1,2018-01-09_18:30,2,132,99,26_Caucasian_female_neutral_right.jpg,99,cue_right,target_F,target_left,cue_1,1,0.48050904473711853
mGCP-III,1,2018-01-09_18:30,2,133,99,37_Caucasian_female_neutral_left.jpg,99,cue_left,target_E,target_left,cue_1,1,0.3394072733208304
mGCP-III,1,2018-01-09_18:30,2,134,99,37_Caucasian_female_neutral_left.jpg,99,cue_left,target_F,target_left,cue_1,0,0.3223943417688133
mGCP-III,1,2018-01-09_18:30,2,135,99,26_Caucasian_female_neutral_right.jpg,99,cue_right,target_E,target_left,cue_1,1,0.6081637103543471
mGCP-III,1,2018-01-09_18:30,2,136,99,61_Caucasian_female_neutral_right.jpg,99,cue_right,target_E,target_left,cue_1,1,0.5483912895233516
mGCP-III,1,2018-01-09_18:31,2,137,99,61_Caucasian_female_neutral_right.jpg,99,cue_right,target_F,target_left,cue_1,1,0.49878103751871095
mGCP-III,1,2018-01-09_18:31,2,138,99,37_Caucasian_female_neutral_right.jpg,99,cue_right,target_F,target_right,cue_1,1,0.5906466802389332
mGCP-III,1,2018-01-09_18:31,2,139,99,26_Caucasian_female_neutral_right.jpg,99,cue_right,target_E,target_right,cue_1,1,0.5078757499759377
mGCP-III,1,2018-01-09_18:31,2,140,99,26_Caucasian_female_neutral_left.jpg,99,cue_left,target_F,target_right,cue_1,1,0.6475541145464376
mGCP-III,1,2018-01-09_18:31,2,141,99,26_Caucasian_female_neutral_right.jpg,99,cue_right,target_E,target_right,cue_1,1,0.33527571939703193
mGCP-III,1,2018-01-09_18:31,2,142,99,26_Caucasian_female_neutral_left.jpg,99,cue_left,target_F,target_left,cue_1,1,0.5182267582313216
mGCP-III,1,2018-01-09_18:31,2,143,99,61_Caucasian_female_neutral_right.jpg,99,cue_right,target_F,target_right,cue_1,0,0.33563957110527554
mGCP-III,1,2018-01-09_18:31,2,144,99,37_Caucasian_female_neutral_left.jpg,99,cue_left,target_F,target_right,cue_1,1,0.5578020512384683
mGCP-III,1,2018-01-09_18:31,2,145,99,26_Caucasian_female_neutral_left.jpg,99,cue_left,target_E,target_left,cue_1,1,0.3580423276871443
mGCP-III,1,2018-01-09_18:31,2,146,99,37_Caucasian_female_neutral_left.jpg,99,cue_left,target_F,target_right,cue_1,1,0.46825502488718485
mGCP-III,1,2018-01-09_18:31,2,147,99,61_Caucasian_female_neutral_right.jpg,99,cue_right,target_F,target_left,cue_1,0,0.4519409572585573
mGCP-III,1,2018-01-09_18:31,2,148,99,26_Caucasian_female_neutral_left.jpg,99,cue_left,target_E,target_left,cue_1,1,0.3698471625302773
mGCP-III,1,2018-01-09_18:31,2,149,99,61_Caucasian_female_neutral_left.jpg,99,cue_left,target_E,target_right,cue_1,0,0.3415014947167947
mGCP-III,1,2018-01-09_18:31,2,150,99,61_Caucasian_female_neutral_right.jpg,99,cue_right,target_F,target_left,cue_1,1,0.3760966415411531
mGCP-III,1,2018-01-09_18:31,2,151,99,37_Caucasian_female_neutral_right.jpg,99,cue_right,target_F,target_left,cue_1,1,0.2799572227322642
mGCP-III,1,2018-01-09_18:31,2,152,99,61_Caucasian_female_neutral_left.jpg,99,cue_left,target_F,target_left,cue_1,1,0.32407690900618036
mGCP-III,1,2018-01-09_18:31,2,153,99,26_Caucasian_female_neutral_right.jpg,99,cue_right,target_F,target_right,cue_1,0,0.38555086002997996
mGCP-III,1,2018-01-09_18:31,2,154,99,61_Caucasian_female_neutral_right.jpg,99,cue_right,target_E,target_left,cue_1,0,0.32173616919135384
mGCP-III,1,2018-01-09_18:31,2,155,99,37_Caucasian_female_neutral_right.jpg,99,cue_right,target_E,target_left,cue_1,1,0.48636978316244495
mGCP-III,1,2018-01-09_18:31,2,156,99,37_Caucasian_female_neutral_left.jpg,99,cue_left,target_E,target_right,cue_1,1,0.4689108270977158
mGCP-III,1,2018-01-09_18:31,2,157,99,26_Caucasian_female_neutral_right.jpg,99,cue_right,target_F,target_right,cue_1,0,0.4072622588591912
mGCP-III,1,2018-01-09_18:31,2,158,99,37_Caucasian_female_neutral_left.jpg,99,cue_left,target_E,target_right,cue_1,1,0.580065351085068
mGCP-III,1,2018-01-09_18:31,2,159,99,61_Caucasian_female_neutral_right.jpg,99,cue_right,target_E,target_left,cue_1,0,0.33350860898463
mGCP-III,1,2018-01-09_18:31,2,160,99,61_Caucasian_female_neutral_left.jpg,99,cue_left,target_F,target_right,cue_1,1,0.35102484897834074
mGCP-III,1,2018-01-09_18:31,2,161,99,61_Caucasian_female_neutral_right.jpg,99,cue_right,target_F,target_right,cue_1,0,0.338480458873164
mGCP-III,1,2018-01-09_18:31,2,162,99,61_Caucasian_female_neutral_right.jpg,99,cue_right,target_F,target_right,cue_1,1,0.5613852596998186
mGCP-III,1,2018-01-09_18:31,2,163,99,26_Caucasian_female_neutral_left.jpg,99,cue_left,target_F,target_left,cue_1,1,0.3780565420020139
mGCP-III,1,2018-01-09_18:31,2,164,99,37_Caucasian_female_neutral_left.jpg,99,cue_left,target_E,target_right,cue_1,1,0.3691068171428924
mGCP-III,1,2018-01-09_18:31,2,165,99,26_Caucasian_female_neutral_right.jpg,99,cue_right,target_E,target_left,cue_1,0,0.3207137498411612
mGCP-III,1,2018-01-09_18:31,2,166,99,26_Caucasian_female_neutral_left.jpg,99,cue_left,target_E,target_right,cue_1,0,0.5451245253825618
mGCP-III,1,2018-01-09_18:31,2,167,99,26_Caucasian_female_neutral_right.jpg,99,cue_right,target_F,target_right,cue_1,1,0.6348635516587819
mGCP-III,1,2018-01-09_18:31,2,168,99,61_Caucasian_female_neutral_left.jpg,99,cue_left,target_E,target_left,cue_1,1,0.36346533789037494
mGCP-III,1,2018-01-09_18:32,2,169,99,61_Caucasian_female_neutral_right.jpg,99,cue_right,target_E,target_right,cue_1,1,0.5338802829119231
mGCP-III,1,2018-01-09_18:32,2,170,99,26_Caucasian_female_neutral_left.jpg,99,cue_left,target_E,target_left,cue_1,1,0.35497704494810023
mGCP-III,1,2018-01-09_18:32,2,171,99,37_Caucasian_female_neutral_right.jpg,99,cue_right,target_E,target_left,cue_1,1,0.43618629681623133
mGCP-III,1,2018-01-09_18:32,2,172,99,61_Caucasian_female_neutral_left.jpg,99,cue_left,target_F,target_right,cue_1,1,0.6745569680770132
mGCP-III,1,2018-01-09_18:32,2,173,99,37_Caucasian_female_neutral_right.jpg,99,cue_right,target_F,target_left,cue_1,1,0.5785518702014087
mGCP-III,1,2018-01-09_18:32,2,174,99,61_Caucasian_female_neutral_left.jpg,99,cue_left,target_F,target_right,cue_1,1,0.40152596482766967
mGCP-III,1,2018-01-09_18:32,2,175,99,26_Caucasian_female_neutral_right.jpg,99,cue_right,target_E,target_right,cue_1,0,0.35754138961237913
mGCP-III,1,2018-01-09_18:32,2,176,99,37_Caucasian_female_neutral_left.jpg,99,cue_left,target_E,target_left,cue_1,1,0.3527575890348089
mGCP-III,1,2018-01-09_18:32,2,177,99,26_Caucasian_female_neutral_left.jpg,99,cue_left,target_F,target_right,cue_1,1,0.49195713898006943
mGCP-III,1,2018-01-09_18:32,2,178,99,37_Caucasian_female_neutral_left.jpg,99,cue_left,target_F,target_right,cue_1,1,0.37116785336547764
mGCP-III,1,2018-01-09_18:32,2,179,99,37_Caucasian_female_neutral_right.jpg,99,cue_right,target_F,target_left,cue_1,0,0.41299815782804217
mGCP-III,1,2018-01-09_18:32,2,180,99,61_Caucasian_female_neutral_left.jpg,99,cue_left,target_F,target_left,cue_1,1,0.5101742182032467
mGCP-III,1,2018-01-09_18:32,2,181,99,37_Caucasian_female_neutral_right.jpg,99,cue_right,target_F,target_right,cue_1,1,0.37920498599305574
mGCP-III,1,2018-01-09_18:32,2,182,99,37_Caucasian_female_neutral_left.jpg,99,cue_left,target_F,target_right,cue_1,1,0.3939613258426107
mGCP-III,1,2018-01-09_18:32,2,183,99,37_Caucasian_female_neutral_left.jpg,99,cue_left,target_F,target_left,cue_1,1,0.5439626492971001
mGCP-III,1,2018-01-09_18:32,2,184,99,37_Caucasian_female_neutral_left.jpg,99,cue_left,target_F,target_left,cue_1,1,0.3226657490704383
mGCP-III,1,2018-01-09_18:32,2,185,99,37_Caucasian_female_neutral_right.jpg,99,cue_right,target_E,target_left,cue_1,0,0.3660762998206337
mGCP-III,1,2018-01-09_18:32,2,186,99,26_Caucasian_female_neutral_left.jpg,99,cue_left,target_E,target_left,cue_1,1,0.48776672088206396
mGCP-III,1,2018-01-09_18:32,2,187,99,26_Caucasian_female_neutral_right.jpg,99,cue_right,target_F,target_left,cue_1,1,0.3941304121963185
mGCP-III,1,2018-01-09_18:32,2,188,99,61_Caucasian_female_neutral_left.jpg,99,cue_left,target_E,target_right,cue_1,1,0.730883266811361
mGCP-III,1,2018-01-09_18:32,2,189,99,26_Caucasian_female_neutral_left.jpg,99,cue_left,target_F,target_left,cue_1,1,0.5296242845925008
mGCP-III,1,2018-01-09_18:32,2,190,99,26_Caucasian_female_neutral_left.jpg,99,cue_left,target_E,target_right,cue_1,1,0.43343706333325827
mGCP-III,1,2018-01-09_18:32,2,191,99,26_Caucasian_female_neutral_right.jpg,99,cue_right,target_F,target_left,cue_1,1,0.6260706662433222
mGCP-III,1,2018-01-09_18:32,2,192,99,37_Caucasian_female_neutral_left.jpg,99,cue_left,target_E,target_left,cue_1,1,0.7437073605105979
mGCP-III,1,2018-01-09_18:32,3,193,37_Caucasian_female_neutral_right.jpg,61_Caucasian_female_neutral_right.jpg,26_Caucasian_female_neutral_right.jpg,cue_right,target_E,target_right,cue_3,1,0.7307943779578636
mGCP-III,1,2018-01-09_18:32,3,194,61_Caucasian_female_neutral_right.jpg,37_Caucasian_female_neutral_right.jpg,26_Caucasian_female_neutral_right.jpg,cue_right,target_F,target_left,cue_3,1,0.48812346148224606
mGCP-III,1,2018-01-09_18:32,3,195,37_Caucasian_female_neutral_left.jpg,61_Caucasian_female_neutral_left.jpg,26_Caucasian_female_neutral_left.jpg,cue_left,target_E,target_left,cue_3,0,0.5149283891641971
mGCP-III,1,2018-01-09_18:32,3,196,26_Caucasian_female_neutral_right.jpg,37_Caucasian_female_neutral_right.jpg,61_Caucasian_female_neutral_right.jpg,cue_right,target_E,target_left,cue_3,1,0.3790730354285188
mGCP-III,1,2018-01-09_18:32,3,197,26_Caucasian_female_neutral_left.jpg,61_Caucasian_female_neutral_left.jpg,37_Caucasian_female_neutral_left.jpg,cue_left,target_E,target_left,cue_3,1,0.31586041842456325
mGCP-III,1,2018-01-09_18:32,3,198,26_Caucasian_female_neutral_left.jpg,37_Caucasian_female_neutral_left.jpg,61_Caucasian_female_neutral_left.jpg,cue_left,target_E,target_left,cue_3,1,0.5385909970991634
mGCP-III,1,2018-01-09_18:33,3,199,37_Caucasian_female_neutral_right.jpg,26_Caucasian_female_neutral_right.jpg,61_Caucasian_female_neutral_right.jpg,cue_right,target_E,target_right,cue_3,0,0.38749179753358476
mGCP-III,1,2018-01-09_18:33,3,200,61_Caucasian_female_neutral_right.jpg,26_Caucasian_female_neutral_right.jpg,37_Caucasian_female_neutral_right.jpg,cue_right,target_E,target_left,cue_3,1,0.253644936830824
mGCP-III,1,2018-01-09_18:33,3,201,37_Caucasian_female_neutral_left.jpg,61_Caucasian_female_neutral_left.jpg,26_Caucasian_female_neutral_left.jpg,cue_left,target_F,target_right,cue_3,99,99
mGCP-III,1,2018-01-09_18:33,3,202,61_Caucasian_female_neutral_left.jpg,37_Caucasian_female_neutral_left.jpg,26_Caucasian_female_neutral_left.jpg,cue_left,target_E,target_left,cue_3,1,0.38360992252455617
mGCP-III,1,2018-01-09_18:33,3,203,37_Caucasian_female_neutral_left.jpg,26_Caucasian_female_neutral_left.jpg,61_Caucasian_female_neutral_left.jpg,cue_left,target_F,target_left,cue_3,0,0.35697803181028576
mGCP-III,1,2018-01-09_18:33,3,204,26_Caucasian_female_neutral_left.jpg,37_Caucasian_female_neutral_left.jpg,61_Caucasian_female_neutral_left.jpg,cue_left,target_F,target_left,cue_3,1,0.4890514611161052
mGCP-III,1,2018-01-09_18:33,3,205,37_Caucasian_female_neutral_right.jpg,26_Caucasian_female_neutral_right.jpg,61_Caucasian_female_neutral_right.jpg,cue_right,target_F,target_left,cue_3,1,0.49170192920428235
mGCP-III,1,2018-01-09_18:33,3,206,37_Caucasian_female_neutral_right.jpg,61_Caucasian_female_neutral_right.jpg,26_Caucasian_female_neutral_right.jpg,cue_right,target_E,target_left,cue_3,0,0.4592223370964348
mGCP-III,1,2018-01-09_18:33,3,207,37_Caucasian_female_neutral_right.jpg,61_Caucasian_female_neutral_right.jpg,26_Caucasian_female_neutral_right.jpg,cue_right,target_F,target_right,cue_3,1,0.5178609312151821
mGCP-III,1,2018-01-09_18:33,3,208,61_Caucasian_female_neutral_right.jpg,26_Caucasian_female_neutral_right.jpg,37_Caucasian_female_neutral_right.jpg,cue_right,target_E,target_right,cue_3,0,0.4078220611081633
mGCP-III,1,2018-01-09_18:33,3,209,26_Caucasian_female_neutral_right.jpg,37_Caucasian_female_neutral_right.jpg,61_Caucasian_female_neutral_right.jpg,cue_right,target_E,target_left,cue_3,1,0.41681919335496787
mGCP-III,1,2018-01-09_18:33,3,210,61_Caucasian_female_neutral_left.jpg,26_Caucasian_female_neutral_left.jpg,37_Caucasian_female_neutral_left.jpg,cue_left,target_F,target_right,cue_3,1,0.40955677647070843
mGCP-III,1,2018-01-09_18:33,3,211,37_Caucasian_female_neutral_right.jpg,61_Caucasian_female_neutral_right.jpg,26_Caucasian_female_neutral_right.jpg,cue_right,target_F,target_left,cue_3,0,0.47928356373995484
mGCP-III,1,2018-01-09_18:33,3,212,37_Caucasian_female_neutral_right.jpg,61_Caucasian_female_neutral_right.jpg,26_Caucasian_female_neutral_right.jpg,cue_right,target_E,target_right,cue_3,1,0.5052169855935063
mGCP-III,1,2018-01-09_18:33,3,213,26_Caucasian_female_neutral_right.jpg,37_Caucasian_female_neutral_right.jpg,61_Caucasian_female_neutral_right.jpg,cue_right,target_F,target_left,cue_3,1,0.5353301588820614
mGCP-III,1,2018-01-09_18:33,3,214,61_Caucasian_female_neutral_right.jpg,26_Caucasian_female_neutral_right.jpg,37_Caucasian_female_neutral_right.jpg,cue_right,target_F,target_left,cue_3,1,0.3478939860160608
mGCP-III,1,2018-01-09_18:33,3,215,26_Caucasian_female_neutral_left.jpg,61_Caucasian_female_neutral_left.jpg,37_Caucasian_female_neutral_left.jpg,cue_left,target_E,target_right,cue_3,1,0.4562937456612417
mGCP-III,1,2018-01-09_18:33,3,216,61_Caucasian_female_neutral_right.jpg,37_Caucasian_female_neutral_right.jpg,26_Caucasian_female_neutral_right.jpg,cue_right,target_E,target_left,cue_3,1,0.532525221717151
mGCP-III,1,2018-01-09_18:33,3,217,61_Caucasian_female_neutral_left.jpg,26_Caucasian_female_neutral_left.jpg,37_Caucasian_female_neutral_left.jpg,cue_left,target_E,target_left,cue_3,1,0.5059008371754317
mGCP-III,1,2018-01-09_18:33,3,218,37_Caucasian_female_neutral_left.jpg,61_Caucasian_female_neutral_left.jpg,26_Caucasian_female_neutral_left.jpg,cue_left,target_E,target_right,cue_3,1,0.44115656645590207
mGCP-III,1,2018-01-09_18:33,3,219,61_Caucasian_female_neutral_left.jpg,37_Caucasian_female_neutral_left.jpg,26_Caucasian_female_neutral_left.jpg,cue_left,target_F,target_right,cue_3,0,0.4067166788281611
mGCP-III,1,2018-01-09_18:33,3,220,61_Caucasian_female_neutral_left.jpg,26_Caucasian_female_neutral_left.jpg,37_Caucasian_female_neutral_left.jpg,cue_left,target_E,target_right,cue_3,1,0.5795948327522638
mGCP-III,1,2018-01-09_18:33,3,221,26_Caucasian_female_neutral_right.jpg,37_Caucasian_female_neutral_right.jpg,61_Caucasian_female_neutral_right.jpg,cue_right,target_F,target_left,cue_3,1,0.49208039819131955
mGCP-III,1,2018-01-09_18:33,3,222,26_Caucasian_female_neutral_right.jpg,37_Caucasian_female_neutral_right.jpg,61_Caucasian_female_neutral_right.jpg,cue_right,target_E,target_right,cue_3,1,0.38632794614204613
mGCP-III,1,2018-01-09_18:33,3,223,61_Caucasian_female_neutral_right.jpg,37_Caucasian_female_neutral_right.jpg,26_Caucasian_female_neutral_right.jpg,cue_right,target_F,target_right,cue_3,0,0.41085376361297676
mGCP-III,1,2018-01-09_18:33,3,224,37_Caucasian_female_neutral_left.jpg,26_Caucasian_female_neutral_left.jpg,61_Caucasian_female_neutral_left.jpg,cue_left,target_F,target_right,cue_3,1,0.5016239005926764
mGCP-III,1,2018-01-09_18:33,3,225,61_Caucasian_female_neutral_left.jpg,26_Caucasian_female_neutral_left.jpg,37_Caucasian_female_neutral_left.jpg,cue_left,target_E,target_right,cue_3,1,0.5024582706337242
mGCP-III,1,2018-01-09_18:33,3,226,26_Caucasian_female_neutral_right.jpg,61_Caucasian_female_neutral_right.jpg,37_Caucasian_female_neutral_right.jpg,cue_right,target_E,target_left,cue_3,1,0.589817445998051
mGCP-III,1,2018-01-09_18:33,3,227,26_Caucasian_female_neutral_left.jpg,37_Caucasian_female_neutral_left.jpg,61_Caucasian_female_neutral_left.jpg,cue_left,target_E,target_left,cue_3,1,0.3403976926820178
mGCP-III,1,2018-01-09_18:33,3,228,61_Caucasian_female_neutral_left.jpg,26_Caucasian_female_neutral_left.jpg,37_Caucasian_female_neutral_left.jpg,cue_left,target_F,target_left,cue_3,1,0.7460216312010743
mGCP-III,1,2018-01-09_18:33,3,229,37_Caucasian_female_neutral_right.jpg,26_Caucasian_female_neutral_right.jpg,61_Caucasian_female_neutral_right.jpg,cue_right,target_E,target_right,cue_3,0,0.3629568936466967
mGCP-III,1,2018-01-09_18:34,3,230,61_Caucasian_female_neutral_right.jpg,26_Caucasian_female_neutral_right.jpg,37_Caucasian_female_neutral_right.jpg,cue_right,target_E,target_right,cue_3,1,0.5985696400712186
mGCP-III,1,2018-01-09_18:34,3,231,37_Caucasian_female_neutral_left.jpg,26_Caucasian_female_neutral_left.jpg,61_Caucasian_female_neutral_left.jpg,cue_left,target_F,target_right,cue_3,1,0.473661442505545
mGCP-III,1,2018-01-09_18:34,3,232,37_Caucasian_female_neutral_right.jpg,61_Caucasian_female_neutral_right.jpg,26_Caucasian_female_neutral_right.jpg,cue_right,target_F,target_left,cue_3,0,0.3896286855779181
mGCP-III,1,2018-01-09_18:34,3,233,26_Caucasian_female_neutral_left.jpg,61_Caucasian_female_neutral_left.jpg,37_Caucasian_female_neutral_left.jpg,cue_left,target_F,target_right,cue_3,1,0.4121819606189092
mGCP-III,1,2018-01-09_18:34,3,234,37_Caucasian_female_neutral_right.jpg,26_Caucasian_female_neutral_right.jpg,61_Caucasian_female_neutral_right.jpg,cue_right,target_F,target_right,cue_3,1,0.35373931704089046
mGCP-III,1,2018-01-09_18:34,3,235,61_Caucasian_female_neutral_left.jpg,37_Caucasian_female_neutral_left.jpg,26_Caucasian_female_neutral_left.jpg,cue_left,target_F,target_left,cue_3,0,0.394642411993118
mGCP-III,1,2018-01-09_18:34,3,236,26_Caucasian_female_neutral_left.jpg,37_Caucasian_female_neutral_left.jpg,61_Caucasian_female_neutral_left.jpg,cue_left,target_F,target_right,cue_3,1,0.5694769108231412
mGCP-III,1,2018-01-09_18:34,3,237,26_Caucasian_female_neutral_left.jpg,37_Caucasian_female_neutral_left.jpg,61_Caucasian_female_neutral_left.jpg,cue_left,target_F,target_left,cue_3,1,0.39604843612869445
mGCP-III,1,2018-01-09_18:34,3,238,37_Caucasian_female_neutral_right.jpg,61_Caucasian_female_neutral_right.jpg,26_Caucasian_female_neutral_right.jpg,cue_right,target_F,target_right,cue_3,1,0.286624281827244
mGCP-III,1,2018-01-09_18:34,3,239,26_Caucasian_female_neutral_left.jpg,61_Caucasian_female_neutral_left.jpg,37_Caucasian_female_neutral_left.jpg,cue_left,target_F,target_right,cue_3,1,0.4153242803658941
mGCP-III,1,2018-01-09_18:34,3,240,37_Caucasian_female_neutral_right.jpg,26_Caucasian_female_neutral_right.jpg,61_Caucasian_female_neutral_right.jpg,cue_right,target_E,target_left,cue_3,1,0.6014836142276181
mGCP-III,1,2018-01-09_18:34,3,241,26_Caucasian_female_neutral_left.jpg,37_Caucasian_female_neutral_left.jpg,61_Caucasian_female_neutral_left.jpg,cue_left,target_F,target_right,cue_3,1,0.4072993946465431
mGCP-III,1,2018-01-09_18:34,3,242,61_Caucasian_female_neutral_right.jpg,26_Caucasian_female_neutral_right.jpg,37_Caucasian_female_neutral_right.jpg,cue_right,target_F,target_right,cue_3,1,0.333105251118468
mGCP-III,1,2018-01-09_18:34,3,243,26_Caucasian_female_neutral_right.jpg,61_Caucasian_female_neutral_right.jpg,37_Caucasian_female_neutral_right.jpg,cue_right,target_E,target_left,cue_3,1,0.7963639323006646
mGCP-III,1,2018-01-09_18:34,3,244,61_Caucasian_female_neutral_right.jpg,26_Caucasian_female_neutral_right.jpg,37_Caucasian_female_neutral_right.jpg,cue_right,target_E,target_left,cue_3,1,0.3861612301589048
mGCP-III,1,2018-01-09_18:34,3,245,61_Caucasian_female_neutral_right.jpg,37_Caucasian_female_neutral_right.jpg,26_Caucasian_female_neutral_right.jpg,cue_right,target_F,target_right,cue_3,1,0.5155703642194567
mGCP-III,1,2018-01-09_18:34,3,246,61_Caucasian_female_neutral_right.jpg,37_Caucasian_female_neutral_right.jpg,26_Caucasian_female_neutral_right.jpg,cue_right,target_E,target_right,cue_3,0,0.5463855619218521
mGCP-III,1,2018-01-09_18:34,3,247,37_Caucasian_female_neutral_left.jpg,61_Caucasian_female_neutral_left.jpg,26_Caucasian_female_neutral_left.jpg,cue_left,target_F,target_left,cue_3,1,0.49319170639319054
mGCP-III,1,2018-01-09_18:34,3,248,61_Caucasian_female_neutral_left.jpg,37_Caucasian_female_neutral_left.jpg,26_Caucasian_female_neutral_left.jpg,cue_left,target_F,target_left,cue_3,1,0.5272898657622136
mGCP-III,1,2018-01-09_18:34,3,249,26_Caucasian_female_neutral_left.jpg,37_Caucasian_female_neutral_left.jpg,61_Caucasian_female_neutral_left.jpg,cue_left,target_E,target_right,cue_3,1,0.4646338905149605
mGCP-III,1,2018-01-09_18:34,3,250,26_Caucasian_female_neutral_right.jpg,61_Caucasian_female_neutral_right.jpg,37_Caucasian_female_neutral_right.jpg,cue_right,target_E,target_right,cue_3,1,0.3541387242912606
mGCP-III,1,2018-01-09_18:34,3,251,26_Caucasian_female_neutral_right.jpg,37_Caucasian_female_neutral_right.jpg,61_Caucasian_female_neutral_right.jpg,cue_right,target_F,target_right,cue_3,0,0.35724272306288185
mGCP-III,1,2018-01-09_18:34,3,252,61_Caucasian_female_neutral_right.jpg,26_Caucasian_female_neutral_right.jpg,37_Caucasian_female_neutral_right.jpg,cue_right,target_F,target_right,cue_3,1,0.5434652667790942
mGCP-III,1,2018-01-09_18:34,3,253,37_Caucasian_female_neutral_left.jpg,26_Caucasian_female_neutral_left.jpg,61_Caucasian_female_neutral_left.jpg,cue_left,target_F,target_left,cue_3,1,0.4531478703611356
mGCP-III,1,2018-01-09_18:34,3,254,26_Caucasian_female_neutral_left.jpg,61_Caucasian_female_neutral_left.jpg,37_Caucasian_female_neutral_left.jpg,cue_left,target_F,target_left,cue_3,1,0.3581774387439509
mGCP-III,1,2018-01-09_18:34,3,255,61_Caucasian_female_neutral_right.jpg,37_Caucasian_female_neutral_right.jpg,26_Caucasian_female_neutral_right.jpg,cue_right,target_E,target_left,cue_3,1,0.5680606150872336
mGCP-III,1,2018-01-09_18:34,3,256,61_Caucasian_female_neutral_left.jpg,26_Caucasian_female_neutral_left.jpg,37_Caucasian_female_neutral_left.jpg,cue_left,target_F,target_left,cue_3,1,0.4140427006259415
mGCP-III,1,2018-01-09_18:34,3,257,26_Caucasian_female_neutral_right.jpg,61_Caucasian_female_neutral_right.jpg,37_Caucasian_female_neutral_right.jpg,cue_right,target_F,target_left,cue_3,1,0.4920886944837548
mGCP-III,1,2018-01-09_18:34,3,258,26_Caucasian_female_neutral_right.jpg,61_Caucasian_female_neutral_right.jpg,37_Caucasian_female_neutral_right.jpg,cue_right,target_F,target_left,cue_3,1,0.5430879829782498
mGCP-III,1,2018-01-09_18:34,3,259,61_Caucasian_female_neutral_left.jpg,37_Caucasian_female_neutral_left.jpg,26_Caucasian_female_neutral_left.jpg,cue_left,target_E,target_left,cue_3,0,0.29606901883744285
mGCP-III,1,2018-01-09_18:34,3,260,37_Caucasian_female_neutral_left.jpg,61_Caucasian_female_neutral_left.jpg,26_Caucasian_female_neutral_left.jpg,cue_left,target_F,target_right,cue_3,1,0.509066465552678
mGCP-III,1,2018-01-09_18:34,3,261,61_Caucasian_female_neutral_right.jpg,26_Caucasian_female_neutral_right.jpg,37_Caucasian_female_neutral_right.jpg,cue_right,target_F,target_left,cue_3,1,0.49454242190950026
mGCP-III,1,2018-01-09_18:34,3,262,26_Caucasian_female_neutral_right.jpg,61_Caucasian_female_neutral_right.jpg,37_Caucasian_female_neutral_right.jpg,cue_right,target_F,target_right,cue_3,1,0.5298877906607231
mGCP-III,1,2018-01-09_18:35,3,263,61_Caucasian_female_neutral_left.jpg,37_Caucasian_female_neutral_left.jpg,26_Caucasian_female_neutral_left.jpg,cue_left,target_E,target_right,cue_3,1,0.29524926607336965
mGCP-III,1,2018-01-09_18:35,3,264,37_Caucasian_female_neutral_right.jpg,26_Caucasian_female_neutral_right.jpg,61_Caucasian_female_neutral_right.jpg,cue_right,target_F,target_left,cue_3,1,0.48355852501299523
mGCP-III,1,2018-01-09_18:35,3,265,61_Caucasian_female_neutral_left.jpg,26_Caucasian_female_neutral_left.jpg,37_Caucasian_female_neutral_left.jpg,cue_left,target_E,target_left,cue_3,0,0.3588371915702737
mGCP-III,1,2018-01-09_18:35,3,266,37_Caucasian_female_neutral_left.jpg,61_Caucasian_female_neutral_left.jpg,26_Caucasian_female_neutral_left.jpg,cue_left,target_E,target_right,cue_3,1,0.5343950481401407
mGCP-III,1,2018-01-09_18:35,3,267,37_Caucasian_female_neutral_right.jpg,26_Caucasian_female_neutral_right.jpg,61_Caucasian_female_neutral_right.jpg,cue_right,target_F,target_right,cue_3,1,0.553971139170244
mGCP-III,1,2018-01-09_18:35,3,268,26_Caucasian_female_neutral_right.jpg,37_Caucasian_female_neutral_right.jpg,61_Caucasian_female_neutral_right.jpg,cue_right,target_F,target_right,cue_3,1,0.39457288115590927
mGCP-III,1,2018-01-09_18:35,3,269,37_Caucasian_female_neutral_left.jpg,26_Caucasian_female_neutral_left.jpg,61_Caucasian_female_neutral_left.jpg,cue_left,target_E,target_right,cue_3,1,0.3579036610753974
mGCP-III,1,2018-01-09_18:35,3,270,61_Caucasian_female_neutral_left.jpg,37_Caucasian_female_neutral_left.jpg,26_Caucasian_female_neutral_left.jpg,cue_left,target_E,target_right,cue_3,1,0.4177306004021375
mGCP-III,1,2018-01-09_18:35,3,271,61_Caucasian_female_neutral_left.jpg,37_Caucasian_female_neutral_left.jpg,26_Caucasian_female_neutral_left.jpg,cue_left,target_F,target_right,cue_3,1,0.7210845546323981
mGCP-III,1,2018-01-09_18:35,3,272,26_Caucasian_female_neutral_left.jpg,37_Caucasian_female_neutral_left.jpg,61_Caucasian_female_neutral_left.jpg,cue_left,target_E,target_right,cue_3,1,0.4851747219054232
mGCP-III,1,2018-01-09_18:35,3,273,26_Caucasian_female_neutral_right.jpg,61_Caucasian_female_neutral_right.jpg,37_Caucasian_female_neutral_right.jpg,cue_right,target_F,target_right,cue_3,1,0.45676228868615
mGCP-III,1,2018-01-09_18:35,3,274,37_Caucasian_female_neutral_left.jpg,26_Caucasian_female_neutral_left.jpg,61_Caucasian_female_neutral_left.jpg,cue_left,target_E,target_right,cue_3,1,0.4674822844517621
mGCP-III,1,2018-01-09_18:35,3,275,26_Caucasian_female_neutral_left.jpg,61_Caucasian_female_neutral_left.jpg,37_Caucasian_female_neutral_left.jpg,cue_left,target_F,target_left,cue_3,1,0.39752517628767237
mGCP-III,1,2018-01-09_18:35,3,276,37_Caucasian_female_neutral_left.jpg,61_Caucasian_female_neutral_left.jpg,26_Caucasian_female_neutral_left.jpg,cue_left,target_F,target_left,cue_3,1,0.39887470661778934
mGCP-III,1,2018-01-09_18:35,3,277,61_Caucasian_female_neutral_left.jpg,26_Caucasian_female_neutral_left.jpg,37_Caucasian_female_neutral_left.jpg,cue_left,target_F,target_right,cue_3,1,0.4638840636507666
mGCP-III,1,2018-01-09_18:35,3,278,37_Caucasian_female_neutral_left.jpg,26_Caucasian_female_neutral_left.jpg,61_Caucasian_female_neutral_left.jpg,cue_left,target_E,target_left,cue_3,1,0.3452229747272213
mGCP-III,1,2018-01-09_18:35,3,279,26_Caucasian_female_neutral_left.jpg,61_Caucasian_female_neutral_left.jpg,37_Caucasian_female_neutral_left.jpg,cue_left,target_E,target_right,cue_3,1,0.3101972107870097
mGCP-III,1,2018-01-09_18:35,3,280,26_Caucasian_female_neutral_right.jpg,37_Caucasian_female_neutral_right.jpg,61_Caucasian_female_neutral_right.jpg,cue_right,target_E,target_right,cue_3,0,0.33079216561236535
mGCP-III,1,2018-01-09_18:35,3,281,26_Caucasian_female_neutral_left.jpg,61_Caucasian_female_neutral_left.jpg,37_Caucasian_female_neutral_left.jpg,cue_left,target_E,target_left,cue_3,1,0.36970217493399105
mGCP-III,1,2018-01-09_18:35,3,282,26_Caucasian_female_neutral_right.jpg,61_Caucasian_female_neutral_right.jpg,37_Caucasian_female_neutral_right.jpg,cue_right,target_E,target_right,cue_3,1,0.2909249221047503
mGCP-III,1,2018-01-09_18:35,3,283,37_Caucasian_female_neutral_right.jpg,26_Caucasian_female_neutral_right.jpg,61_Caucasian_female_neutral_right.jpg,cue_right,target_E,target_left,cue_3,1,0.3884656243099016
mGCP-III,1,2018-01-09_18:35,3,284,37_Caucasian_female_neutral_left.jpg,26_Caucasian_female_neutral_left.jpg,61_Caucasian_female_neutral_left.jpg,cue_left,target_E,target_left,cue_3,1,0.3916754995843803
mGCP-III,1,2018-01-09_18:35,3,285,61_Caucasian_female_neutral_right.jpg,37_Caucasian_female_neutral_right.jpg,26_Caucasian_female_neutral_right.jpg,cue_right,target_E,target_right,cue_3,0,0.408877665629916
mGCP-III,1,2018-01-09_18:35,3,286,61_Caucasian_female_neutral_right.jpg,37_Caucasian_female_neutral_right.jpg,26_Caucasian_female_neutral_right.jpg,cue_right,target_F,target_left,cue_3,0,0.378640047945737
mGCP-III,1,2018-01-09_18:35,3,287,37_Caucasian_female_neutral_right.jpg,61_Caucasian_female_neutral_right.jpg,26_Caucasian_female_neutral_right.jpg,cue_right,target_E,target_left,cue_3,1,0.3896907102462137
mGCP-III,1,2018-01-09_18:35,3,288,37_Caucasian_female_neutral_left.jpg,61_Caucasian_female_neutral_left.jpg,26_Caucasian_female_neutral_left.jpg,cue_left,target_E,target_left,cue_3,1,0.41720042777160415
mGCP-III,1,2018-01-09_18:35,4,289,99,37_Caucasian_female_neutral_right.jpg,99,cue_right,target_E,target_left,cue_1,1,0.5053524917129835
mGCP-III,1,2018-01-09_18:35,4,290,99,37_Caucasian_female_neutral_left.jpg,99,cue_left,target_E,target_left,cue_1,1,0.34202218586688105
mGCP-III,1,2018-01-09_18:35,4,291,99,37_Caucasian_female_neutral_right.jpg,99,cue_right,target_E,target_left,cue_1,1,0.3865448349461076
mGCP-III,1,2018-01-09_18:35,4,292,99,61_Caucasian_female_neutral_right.jpg,99,cue_right,target_F,target_right,cue_1,1,0.38322987329047464
mGCP-III,1,2018-01-09_18:36,4,293,99,26_Caucasian_female_neutral_left.jpg,99,cue_left,target_E,target_left,cue_1,1,0.7017087598196667
mGCP-III,1,2018-01-09_18:36,4,294,99,37_Caucasian_female_neutral_left.jpg,99,cue_left,target_F,target_right,cue_1,1,0.3800354054183117
mGCP-III,1,2018-01-09_18:36,4,295,99,37_Caucasian_female_neutral_left.jpg,99,cue_left,target_E,target_right,cue_1,0,0.3467269741340715
mGCP-III,1,2018-01-09_18:36,4,296,99,61_Caucasian_female_neutral_right.jpg,99,cue_right,target_E,target_right,cue_1,1,0.4911381763395184
mGCP-III,1,2018-01-09_18:36,4,297,99,37_Caucasian_female_neutral_right.jpg,99,cue_right,target_E,target_right,cue_1,1,0.41008220836374676
mGCP-III,1,2018-01-09_18:36,4,298,99,26_Caucasian_female_neutral_left.jpg,99,cue_left,target_F,target_right,cue_1,0,0.3711591620103718
mGCP-III,1,2018-01-09_18:36,4,299,99,37_Caucasian_female_neutral_left.jpg,99,cue_left,target_E,target_right,cue_1,1,0.46781887691031443
mGCP-III,1,2018-01-09_18:36,4,300,99,37_Caucasian_female_neutral_right.jpg,99,cue_right,target_F,target_right,cue_1,1,0.46177799040742684
mGCP-III,1,2018-01-09_18:36,4,301,99,26_Caucasian_female_neutral_left.jpg,99,cue_left,target_E,target_left,cue_1,1,0.4493406619894813
mGCP-III,1,2018-01-09_18:36,4,302,99,61_Caucasian_female_neutral_right.jpg,99,cue_right,target_E,target_right,cue_1,1,0.5694694046542281
mGCP-III,1,2018-01-09_18:36,4,303,99,61_Caucasian_female_neutral_right.jpg,99,cue_right,target_E,target_left,cue_1,1,0.4196766737077269
mGCP-III,1,2018-01-09_18:36,4,304,99,61_Caucasian_female_neutral_left.jpg,99,cue_left,target_F,target_right,cue_1,1,0.34719867765124945
mGCP-III,1,2018-01-09_18:36,4,305,99,26_Caucasian_female_neutral_left.jpg,99,cue_left,target_F,target_right,cue_1,0,0.31528283840816584
mGCP-III,1,2018-01-09_18:36,4,306,99,61_Caucasian_female_neutral_right.jpg,99,cue_right,target_E,target_left,cue_1,1,0.34771857867963263
mGCP-III,1,2018-01-09_18:36,4,307,99,61_Caucasian_female_neutral_left.jpg,99,cue_left,target_F,target_left,cue_1,0,0.4117039361171919
mGCP-III,1,2018-01-09_18:36,4,308,99,26_Caucasian_female_neutral_right.jpg,99,cue_right,target_E,target_left,cue_1,1,0.3947131280147005
mGCP-III,1,2018-01-09_18:36,4,309,99,61_Caucasian_female_neutral_left.jpg,99,cue_left,target_F,target_right,cue_1,1,0.31293459242078825
mGCP-III,1,2018-01-09_18:36,4,310,99,26_Caucasian_female_neutral_right.jpg,99,cue_right,target_E,target_left,cue_1,1,0.42848141097056214
mGCP-III,1,2018-01-09_18:36,4,311,99,26_Caucasian_female_neutral_left.jpg,99,cue_left,target_F,target_left,cue_1,1,0.6425435486253264
mGCP-III,1,2018-01-09_18:36,4,312,99,37_Caucasian_female_neutral_right.jpg,99,cue_right,target_E,target_right,cue_1,1,0.3738621732882166
mGCP-III,1,2018-01-09_18:36,4,313,99,61_Caucasian_female_neutral_right.jpg,99,cue_right,target_E,target_right,cue_1,1,0.525057372817173
mGCP-III,1,2018-01-09_18:36,4,314,99,37_Caucasian_female_neutral_left.jpg,99,cue_left,target_E,target_left,cue_1,0,0.2910920331487432
mGCP-III,1,2018-01-09_18:36,4,315,99,37_Caucasian_female_neutral_right.jpg,99,cue_right,target_F,target_right,cue_1,0,0.28339583865817985
mGCP-III,1,2018-01-09_18:36,4,316,99,26_Caucasian_female_neutral_right.jpg,99,cue_right,target_E,target_right,cue_1,1,0.411673516375231
mGCP-III,1,2018-01-09_18:36,4,317,99,61_Caucasian_female_neutral_left.jpg,99,cue_left,target_F,target_left,cue_1,1,0.5162743639411929
mGCP-III,1,2018-01-09_18:36,4,318,99,26_Caucasian_female_neutral_left.jpg,99,cue_left,target_F,target_right,cue_1,1,0.3771249868132145
mGCP-III,1,2018-01-09_18:36,4,319,99,26_Caucasian_female_neutral_left.jpg,99,cue_left,target_E,target_right,cue_1,1,0.43663034602286643
mGCP-III,1,2018-01-09_18:36,4,320,99,61_Caucasian_female_neutral_right.jpg,99,cue_right,target_F,target_left,cue_1,0,0.46115221287800523
mGCP-III,1,2018-01-09_18:36,4,321,99,61_Caucasian_female_neutral_left.jpg,99,cue_left,target_E,target_right,cue_1,0,0.3947739674968034
mGCP-III,1,2018-01-09_18:36,4,322,99,37_Caucasian_female_neutral_left.jpg,99,cue_left,target_E,target_right,cue_1,1,0.3909011789037322
mGCP-III,1,2018-01-09_18:36,4,323,99,61_Caucasian_female_neutral_right.jpg,99,cue_right,target_F,target_left,cue_1,1,0.5026490853724681
mGCP-III,1,2018-01-09_18:36,4,324,99,37_Caucasian_female_neutral_left.jpg,99,cue_left,target_F,target_left,cue_1,0,0.4230319316411624
mGCP-III,1,2018-01-09_18:36,4,325,99,37_Caucasian_female_neutral_left.jpg,99,cue_left,target_E,target_right,cue_1,1,0.47665561416215496
mGCP-III,1,2018-01-09_18:37,4,326,99,37_Caucasian_female_neutral_right.jpg,99,cue_right,target_F,target_right,cue_1,0,0.4413209120702959
mGCP-III,1,2018-01-09_18:37,4,327,99,26_Caucasian_female_neutral_right.jpg,99,cue_right,target_F,target_right,cue_1,1,0.5056329854287469
mGCP-III,1,2018-01-09_18:37,4,328,99,61_Caucasian_female_neutral_left.jpg,99,cue_left,target_F,target_left,cue_1,1,0.5577728166827001
mGCP-III,1,2018-01-09_18:37,4,329,99,61_Caucasian_female_neutral_left.jpg,99,cue_left,target_F,target_left,cue_1,1,0.4405055049846851
mGCP-III,1,2018-01-09_18:37,4,330,99,26_Caucasian_female_neutral_right.jpg,99,cue_right,target_E,target_right,cue_1,1,0.3760136786113435
mGCP-III,1,2018-01-09_18:37,4,331,99,37_Caucasian_female_neutral_right.jpg,99,cue_right,target_E,target_left,cue_1,0,0.36984992795987637
mGCP-III,1,2018-01-09_18:37,4,332,99,37_Caucasian_female_neutral_right.jpg,99,cue_right,target_F,target_left,cue_1,1,0.47830104560853215
mGCP-III,1,2018-01-09_18:37,4,333,99,26_Caucasian_female_neutral_right.jpg,99,cue_right,target_E,target_right,cue_1,1,0.3873191556267557
mGCP-III,1,2018-01-09_18:37,4,334,99,26_Caucasian_female_neutral_right.jpg,99,cue_right,target_F,target_left,cue_1,1,0.5474676355679549
mGCP-III,1,2018-01-09_18:37,4,335,99,37_Caucasian_female_neutral_left.jpg,99,cue_left,target_F,target_right,cue_1,0,0.4355032353578281
mGCP-III,1,2018-01-09_18:37,4,336,99,61_Caucasian_female_neutral_left.jpg,99,cue_left,target_E,target_right,cue_1,0,0.5266743598331232
mGCP-III,1,2018-01-09_18:37,4,337,99,26_Caucasian_female_neutral_left.jpg,99,cue_left,target_E,target_left,cue_1,1,0.5733892055759497
mGCP-III,1,2018-01-09_18:37,4,338,99,37_Caucasian_female_neutral_right.jpg,99,cue_right,target_E,target_right,cue_1,1,0.4502066369550448
mGCP-III,1,2018-01-09_18:37,4,339,99,37_Caucasian_female_neutral_right.jpg,99,cue_right,target_F,target_left,cue_1,1,0.509130070468018
mGCP-III,1,2018-01-09_18:37,4,340,99,61_Caucasian_female_neutral_right.jpg,99,cue_right,target_E,target_left,cue_1,1,0.47881778614646464
mGCP-III,1,2018-01-09_18:37,4,341,99,61_Caucasian_female_neutral_right.jpg,99,cue_right,target_E,target_left,cue_1,1,0.420925463336971
mGCP-III,1,2018-01-09_18:37,4,342,99,26_Caucasian_female_neutral_right.jpg,99,cue_right,target_F,target_left,cue_1,0,0.3949118439850281
mGCP-III,1,2018-01-09_18:37,4,343,99,37_Caucasian_female_neutral_left.jpg,99,cue_left,target_F,target_left,cue_1,1,0.65211944607654
mGCP-III,1,2018-01-09_18:37,4,344,99,26_Caucasian_female_neutral_left.jpg,99,cue_left,target_F,target_right,cue_1,1,0.37884864045372524
mGCP-III,1,2018-01-09_18:37,4,345,99,37_Caucasian_female_neutral_right.jpg,99,cue_right,target_E,target_right,cue_1,1,0.45026866162152146
mGCP-III,1,2018-01-09_18:37,4,346,99,61_Caucasian_female_neutral_left.jpg,99,cue_left,target_F,target_right,cue_1,1,0.5481941538000683
mGCP-III,1,2018-01-09_18:37,4,347,99,26_Caucasian_female_neutral_left.jpg,99,cue_left,target_F,target_left,cue_1,1,0.5291478403378278
mGCP-III,1,2018-01-09_18:37,4,348,99,37_Caucasian_female_neutral_left.jpg,99,cue_left,target_F,target_right,cue_1,1,0.5927883090207615
mGCP-III,1,2018-01-09_18:37,4,349,99,61_Caucasian_female_neutral_right.jpg,99,cue_right,target_F,target_right,cue_1,1,0.3778451840607886
mGCP-III,1,2018-01-09_18:37,4,350,99,61_Caucasian_female_neutral_left.jpg,99,cue_left,target_E,target_left,cue_1,1,0.3548150697024539
mGCP-III,1,2018-01-09_18:37,4,351,99,37_Caucasian_female_neutral_right.jpg,99,cue_right,target_E,target_left,cue_1,1,0.6665214156964794
mGCP-III,1,2018-01-09_18:37,4,352,99,26_Caucasian_female_neutral_right.jpg,99,cue_right,target_E,target_right,cue_1,1,0.3145685670842795
mGCP-III,1,2018-01-09_18:37,4,353,99,37_Caucasian_female_neutral_left.jpg,99,cue_left,target_F,target_left,cue_1,0,0.39834571917162975
mGCP-III,1,2018-01-09_18:37,4,354,99,26_Caucasian_female_neutral_left.jpg,99,cue_left,target_F,target_left,cue_1,1,0.4498455506782193
mGCP-III,1,2018-01-09_18:37,4,355,99,26_Caucasian_female_neutral_right.jpg,99,cue_right,target_F,target_left,cue_1,1,0.48932958446312114
mGCP-III,1,2018-01-09_18:37,4,356,99,26_Caucasian_female_neutral_right.jpg,99,cue_right,target_F,target_right,cue_1,1,0.4190595875315921
mGCP-III,1,2018-01-09_18:37,4,357,99,26_Caucasian_female_neutral_right.jpg,99,cue_right,target_F,target_left,cue_1,1,0.3078023475336522
mGCP-III,1,2018-01-09_18:38,4,358,99,61_Caucasian_female_neutral_right.jpg,99,cue_right,target_F,target_left,cue_1,1,0.3714041001858277
mGCP-III,1,2018-01-09_18:38,4,359,99,61_Caucasian_female_neutral_left.jpg,99,cue_left,target_E,target_left,cue_1,0,0.45450174636971497
mGCP-III,1,2018-01-09_18:38,4,360,99,37_Caucasian_female_neutral_left.jpg,99,cue_left,target_E,target_left,cue_1,1,0.29987267165597586
mGCP-III,1,2018-01-09_18:38,4,361,99,61_Caucasian_female_neutral_left.jpg,99,cue_left,target_F,target_right,cue_1,1,0.5817562146148703
mGCP-III,1,2018-01-09_18:38,4,362,99,26_Caucasian_female_neutral_left.jpg,99,cue_left,target_E,target_right,cue_1,1,0.6505964837142528
mGCP-III,1,2018-01-09_18:38,4,363,99,61_Caucasian_female_neutral_right.jpg,99,cue_right,target_F,target_right,cue_1,1,0.39112122820006334
mGCP-III,1,2018-01-09_18:38,4,364,99,37_Caucasian_female_neutral_right.jpg,99,cue_right,target_F,target_left,cue_1,1,0.5078887870076869
mGCP-III,1,2018-01-09_18:38,4,365,99,26_Caucasian_female_neutral_right.jpg,99,cue_right,target_F,target_right,cue_1,1,0.3030817568069324
mGCP-III,1,2018-01-09_18:38,4,366,99,37_Caucasian_female_neutral_left.jpg,99,cue_left,target_F,target_right,cue_1,0,0.3663220281214308
mGCP-III,1,2018-01-09_18:38,4,367,99,61_Caucasian_female_neutral_left.jpg,99,cue_left,target_E,target_right,cue_1,1,0.35546692129719304
mGCP-III,1,2018-01-09_18:38,4,368,99,61_Caucasian_female_neutral_left.jpg,99,cue_left,target_E,target_left,cue_1,1,0.3709383225923375
mGCP-III,1,2018-01-09_18:38,4,369,99,37_Caucasian_female_neutral_left.jpg,99,cue_left,target_F,target_left,cue_1,1,0.43143568140840216
mGCP-III,1,2018-01-09_18:38,4,370,99,37_Caucasian_female_neutral_left.jpg,99,cue_left,target_E,target_left,cue_1,0,0.42313188222033205
mGCP-III,1,2018-01-09_18:38,4,371,99,26_Caucasian_female_neutral_right.jpg,99,cue_right,target_F,target_right,cue_1,1,0.5203517944282794
mGCP-III,1,2018-01-09_18:38,4,372,99,61_Caucasian_female_neutral_right.jpg,99,cue_right,target_F,target_right,cue_1,1,0.6540485317345883
mGCP-III,1,2018-01-09_18:38,4,373,99,26_Caucasian_female_neutral_left.jpg,99,cue_left,target_E,target_left,cue_1,1,0.3970317443818203
mGCP-III,1,2018-01-09_18:38,4,374,99,61_Caucasian_female_neutral_left.jpg,99,cue_left,target_E,target_left,cue_1,1,0.3541454403366515
mGCP-III,1,2018-01-09_18:38,4,375,99,37_Caucasian_female_neutral_right.jpg,99,cue_right,target_F,target_right,cue_1,1,0.3599338824951701
mGCP-III,1,2018-01-09_18:38,4,376,99,26_Caucasian_female_neutral_left.jpg,99,cue_left,target_E,target_right,cue_1,1,0.3055678792825347
mGCP-III,1,2018-01-09_18:38,4,377,99,37_Caucasian_female_neutral_right.jpg,99,cue_right,target_F,target_left,cue_1,1,0.6501994468344492
mGCP-III,1,2018-01-09_18:38,4,378,99,61_Caucasian_female_neutral_right.jpg,99,cue_right,target_F,target_left,cue_1,0,0.3204127129229164
mGCP-III,1,2018-01-09_18:38,4,379,99,26_Caucasian_female_neutral_right.jpg,99,cue_right,target_E,target_left,cue_1,1,0.6227971860553225
mGCP-III,1,2018-01-09_18:38,4,380,99,61_Caucasian_female_neutral_right.jpg,99,cue_right,target_E,target_right,cue_1,1,0.473399516680729
mGCP-III,1,2018-01-09_18:38,4,381,99,61_Caucasian_female_neutral_left.jpg,99,cue_left,target_E,target_right,cue_1,1,0.5038168873797986
mGCP-III,1,2018-01-09_18:38,4,382,99,26_Caucasian_female_neutral_right.jpg,99,cue_right,target_E,target_left,cue_1,1,0.651684878346714
mGCP-III,1,2018-01-09_18:38,4,383,99,26_Caucasian_female_neutral_left.jpg,99,cue_left,target_F,target_left,cue_1,0,0.41327549105153594
mGCP-III,1,2018-01-09_18:38,4,384,99,26_Caucasian_female_neutral_left.jpg,99,cue_left,target_E,target_right,cue_1,0,0.395520238807876
