experiment,subject,date,block,trial,face_left,face_top,face_right,cue_dir,target_id,target_pos,cue_num,correct_response,rt
mGCP-III,2,2018-01-09_18:41,1,1,99,61_Caucasian_female_neutral_right.jpg,99,cue_right,target_E,target_right,cue_1,1,0.6426130794625351
mGCP-III,2,2018-01-09_18:41,1,2,99,26_Caucasian_female_neutral_left.jpg,99,cue_left,target_E,target_right,cue_1,1,0.4031765320778504
mGCP-III,2,2018-01-09_18:41,1,3,99,37_Caucasian_female_neutral_left.jpg,99,cue_left,target_E,target_left,cue_1,1,0.6573334687072929
mGCP-III,2,2018-01-09_18:41,1,4,99,26_Caucasian_female_neutral_right.jpg,99,cue_right,target_E,target_right,cue_1,1,0.43969878925418016
mGCP-III,2,2018-01-09_18:41,1,5,99,61_Caucasian_female_neutral_right.jpg,99,cue_right,target_F,target_left,cue_1,1,0.4606781389902608
mGCP-III,2,2018-01-09_18:41,1,6,99,37_Caucasian_female_neutral_left.jpg,99,cue_left,target_F,target_right,cue_1,1,0.41419045365182683
mGCP-III,2,2018-01-09_18:41,1,7,99,37_Caucasian_female_neutral_left.jpg,99,cue_left,target_F,target_left,cue_1,1,0.6976605638865294
mGCP-III,2,2018-01-09_18:41,1,8,99,37_Caucasian_female_neutral_right.jpg,99,cue_right,target_E,target_right,cue_1,1,0.49389294068350864
mGCP-III,2,2018-01-09_18:41,1,9,99,26_Caucasian_female_neutral_left.jpg,99,cue_left,target_E,target_left,cue_1,1,0.7360032647884509
mGCP-III,2,2018-01-09_18:41,1,10,99,61_Caucasian_female_neutral_left.jpg,99,cue_left,target_F,target_left,cue_1,1,0.6529629025335453
mGCP-III,2,2018-01-09_18:41,1,11,99,37_Caucasian_female_neutral_right.jpg,99,cue_right,target_E,target_left,cue_1,1,0.6589690236178285
mGCP-III,2,2018-01-09_18:41,1,12,99,61_Caucasian_female_neutral_left.jpg,99,cue_left,target_E,target_right,cue_1,1,0.6290948625810415
mGCP-III,2,2018-01-09_18:41,1,13,99,26_Caucasian_female_neutral_left.jpg,99,cue_left,target_F,target_right,cue_1,1,0.5117434027670242
mGCP-III,2,2018-01-09_18:41,1,14,99,26_Caucasian_female_neutral_left.jpg,99,cue_left,target_E,target_left,cue_1,1,0.5264574710290617
mGCP-III,2,2018-01-09_18:41,1,15,99,26_Caucasian_female_neutral_right.jpg,99,cue_right,target_E,target_right,cue_1,1,0.5720811567080091
mGCP-III,2,2018-01-09_18:41,1,16,99,37_Caucasian_female_neutral_right.jpg,99,cue_right,target_E,target_right,cue_1,1,0.5851067318089918
mGCP-III,2,2018-01-09_18:41,1,17,99,37_Caucasian_female_neutral_right.jpg,99,cue_right,target_F,target_left,cue_1,1,0.5157319444006134
mGCP-III,2,2018-01-09_18:41,1,18,99,61_Caucasian_female_neutral_right.jpg,99,cue_right,target_F,target_right,cue_1,1,0.6510286810753314
mGCP-III,2,2018-01-09_18:41,1,19,99,26_Caucasian_female_neutral_left.jpg,99,cue_left,target_F,target_right,cue_1,1,0.5735665882202738
mGCP-III,2,2018-01-09_18:41,1,20,99,61_Caucasian_female_neutral_left.jpg,99,cue_left,target_E,target_left,cue_1,1,0.41612546523356286
mGCP-III,2,2018-01-09_18:41,1,21,99,37_Caucasian_female_neutral_right.jpg,99,cue_right,target_F,target_right,cue_1,0,0.4891577326798142
mGCP-III,2,2018-01-09_18:42,1,22,99,61_Caucasian_female_neutral_left.jpg,99,cue_left,target_F,target_right,cue_1,1,0.5061035037615511
mGCP-III,2,2018-01-09_18:42,1,23,99,37_Caucasian_female_neutral_left.jpg,99,cue_left,target_F,target_left,cue_1,1,0.44664476181787904
mGCP-III,2,2018-01-09_18:42,1,24,99,26_Caucasian_female_neutral_left.jpg,99,cue_left,target_F,target_right,cue_1,1,0.3767650857225817
mGCP-III,2,2018-01-09_18:42,1,25,99,61_Caucasian_female_neutral_left.jpg,99,cue_left,target_E,target_left,cue_1,1,0.5653003198822262
mGCP-III,2,2018-01-09_18:42,1,26,99,61_Caucasian_female_neutral_right.jpg,99,cue_right,target_F,target_right,cue_1,1,0.694657305813962
mGCP-III,2,2018-01-09_18:42,1,27,99,37_Caucasian_female_neutral_left.jpg,99,cue_left,target_F,target_right,cue_1,1,0.6196765946951928
mGCP-III,2,2018-01-09_18:42,1,28,99,26_Caucasian_female_neutral_right.jpg,99,cue_right,target_F,target_right,cue_1,1,0.46487290276672866
mGCP-III,2,2018-01-09_18:42,1,29,99,37_Caucasian_female_neutral_left.jpg,99,cue_left,target_E,target_right,cue_1,1,0.544426846645365
mGCP-III,2,2018-01-09_18:42,1,30,99,37_Caucasian_female_neutral_right.jpg,99,cue_right,target_F,target_left,cue_1,99,99
mGCP-III,2,2018-01-09_18:42,1,31,99,26_Caucasian_female_neutral_right.jpg,99,cue_right,target_F,target_right,cue_1,1,0.6683217112804414
mGCP-III,2,2018-01-09_18:42,1,32,99,37_Caucasian_female_neutral_right.jpg,99,cue_right,target_E,target_left,cue_1,1,0.6005528491641599
mGCP-III,2,2018-01-09_18:42,1,33,99,61_Caucasian_female_neutral_left.jpg,99,cue_left,target_F,target_left,cue_1,1,0.6475296207299834
mGCP-III,2,2018-01-09_18:42,1,34,99,26_Caucasian_female_neutral_right.jpg,99,cue_right,target_F,target_left,cue_1,1,0.7330600560744642
mGCP-III,2,2018-01-09_18:42,1,35,99,61_Caucasian_female_neutral_right.jpg,99,cue_right,target_E,target_left,cue_1,1,0.585133991056864
mGCP-III,2,2018-01-09_18:42,1,36,99,37_Caucasian_female_neutral_right.jpg,99,cue_right,target_F,target_left,cue_1,1,0.6159630159163498
mGCP-III,2,2018-01-09_18:42,1,37,99,26_Caucasian_female_neutral_left.jpg,99,cue_left,target_E,target_right,cue_1,1,0.5832681152514851
mGCP-III,2,2018-01-09_18:42,1,38,99,26_Caucasian_female_neutral_left.jpg,99,cue_left,target_F,target_right,cue_1,1,0.6710322287271993
mGCP-III,2,2018-01-09_18:42,1,39,99,26_Caucasian_female_neutral_left.jpg,99,cue_left,target_E,target_left,cue_1,0,0.5131403404884622
mGCP-III,2,2018-01-09_18:42,1,40,99,61_Caucasian_female_neutral_right.jpg,99,cue_right,target_F,target_left,cue_1,1,0.6171620277891634
mGCP-III,2,2018-01-09_18:42,1,41,99,61_Caucasian_female_neutral_left.jpg,99,cue_left,target_F,target_right,cue_1,1,0.4084051719873969
mGCP-III,2,2018-01-09_18:42,1,42,99,61_Caucasian_female_neutral_left.jpg,99,cue_left,target_E,target_right,cue_1,99,99
mGCP-III,2,2018-01-09_18:42,1,43,99,26_Caucasian_female_neutral_right.jpg,99,cue_right,target_F,target_left,cue_1,99,99
mGCP-III,2,2018-01-09_18:42,1,44,99,37_Caucasian_female_neutral_left.jpg,99,cue_left,target_E,target_right,cue_1,1,0.560264074956649
mGCP-III,2,2018-01-09_18:42,1,45,99,37_Caucasian_female_neutral_left.jpg,99,cue_left,target_E,target_right,cue_1,1,0.47604445390788896
mGCP-III,2,2018-01-09_18:42,1,46,99,37_Caucasian_female_neutral_right.jpg,99,cue_right,target_F,target_left,cue_1,1,0.5382437379776093
mGCP-III,2,2018-01-09_18:42,1,47,99,26_Caucasian_female_neutral_right.jpg,99,cue_right,target_E,target_left,cue_1,1,0.5410696134040336
mGCP-III,2,2018-01-09_18:42,1,48,99,61_Caucasian_female_neutral_right.jpg,99,cue_right,target_E,target_right,cue_1,1,0.5752203159627243
mGCP-III,2,2018-01-09_18:43,1,49,99,26_Caucasian_female_neutral_left.jpg,99,cue_left,target_F,target_left,cue_1,99,99
mGCP-III,2,2018-01-09_18:43,1,50,99,37_Caucasian_female_neutral_left.jpg,99,cue_left,target_E,target_left,cue_1,1,0.5114929337305512
mGCP-III,2,2018-01-09_18:43,1,51,99,26_Caucasian_female_neutral_right.jpg,99,cue_right,target_F,target_left,cue_1,1,0.5459261053129012
mGCP-III,2,2018-01-09_18:43,1,52,99,61_Caucasian_female_neutral_left.jpg,99,cue_left,target_E,target_left,cue_1,1,0.5261157427685248
mGCP-III,2,2018-01-09_18:43,1,53,99,26_Caucasian_female_neutral_left.jpg,99,cue_left,target_F,target_left,cue_1,1,0.6559025556925917
mGCP-III,2,2018-01-09_18:43,1,54,99,37_Caucasian_female_neutral_left.jpg,99,cue_left,target_F,target_left,cue_1,1,0.7041206107169273
mGCP-III,2,2018-01-09_18:43,1,55,99,61_Caucasian_female_neutral_right.jpg,99,cue_right,target_F,target_left,cue_1,99,99
mGCP-III,2,2018-01-09_18:43,1,56,99,61_Caucasian_female_neutral_right.jpg,99,cue_right,target_E,target_left,cue_1,1,0.6213959026572411
mGCP-III,2,2018-01-09_18:43,1,57,99,37_Caucasian_female_neutral_right.jpg,99,cue_right,target_F,target_right,cue_1,99,99
mGCP-III,2,2018-01-09_18:43,1,58,99,26_Caucasian_female_neutral_right.jpg,99,cue_right,target_E,target_right,cue_1,1,0.5736246622709587
mGCP-III,2,2018-01-09_18:43,1,59,99,37_Caucasian_female_neutral_right.jpg,99,cue_right,target_E,target_left,cue_1,1,0.557474940256725
mGCP-III,2,2018-01-09_18:43,1,60,99,61_Caucasian_female_neutral_right.jpg,99,cue_right,target_F,target_right,cue_1,1,0.5811707333650702
mGCP-III,2,2018-01-09_18:43,1,61,99,61_Caucasian_female_neutral_right.jpg,99,cue_right,target_E,target_left,cue_1,1,0.6268690856813919
mGCP-III,2,2018-01-09_18:43,1,62,99,61_Caucasian_female_neutral_left.jpg,99,cue_left,target_E,target_right,cue_1,1,0.5231199908666895
mGCP-III,2,2018-01-09_18:43,1,63,99,26_Caucasian_female_neutral_right.jpg,99,cue_right,target_F,target_right,cue_1,1,0.5125031061706977
mGCP-III,2,2018-01-09_18:43,1,64,99,61_Caucasian_female_neutral_right.jpg,99,cue_right,target_F,target_right,cue_1,1,0.6175333856663201
mGCP-III,2,2018-01-09_18:43,1,65,99,61_Caucasian_female_neutral_right.jpg,99,cue_right,target_F,target_left,cue_1,99,99
mGCP-III,2,2018-01-09_18:43,1,66,99,61_Caucasian_female_neutral_left.jpg,99,cue_left,target_F,target_left,cue_1,1,0.5770632781968743
mGCP-III,2,2018-01-09_18:43,1,67,99,37_Caucasian_female_neutral_right.jpg,99,cue_right,target_E,target_right,cue_1,1,0.44845177345086995
mGCP-III,2,2018-01-09_18:43,1,68,99,37_Caucasian_female_neutral_right.jpg,99,cue_right,target_F,target_right,cue_1,1,0.6758413132483838
mGCP-III,2,2018-01-09_18:43,1,69,99,61_Caucasian_female_neutral_right.jpg,99,cue_right,target_E,target_right,cue_1,1,0.6362284893912147
mGCP-III,2,2018-01-09_18:43,1,70,99,26_Caucasian_female_neutral_left.jpg,99,cue_left,target_E,target_left,cue_1,1,0.6814780517615873
mGCP-III,2,2018-01-09_18:43,1,71,99,61_Caucasian_female_neutral_left.jpg,99,cue_left,target_F,target_right,cue_1,1,0.5098731812850019
mGCP-III,2,2018-01-09_18:43,1,72,99,61_Caucasian_female_neutral_left.jpg,99,cue_left,target_F,target_left,cue_1,1,0.5224282380531804
mGCP-III,2,2018-01-09_18:43,1,73,99,26_Caucasian_female_neutral_left.jpg,99,cue_left,target_F,target_left,cue_1,1,0.518099153343428
mGCP-III,2,2018-01-09_18:43,1,74,99,37_Caucasian_female_neutral_right.jpg,99,cue_right,target_E,target_left,cue_1,1,0.7317816368267813
mGCP-III,2,2018-01-09_18:44,1,75,99,26_Caucasian_female_neutral_left.jpg,99,cue_left,target_E,target_right,cue_1,1,0.6197895823061117
mGCP-III,2,2018-01-09_18:44,1,76,99,37_Caucasian_female_neutral_left.jpg,99,cue_left,target_F,target_right,cue_1,1,0.49371279260594747
mGCP-III,2,2018-01-09_18:44,1,77,99,37_Caucasian_female_neutral_left.jpg,99,cue_left,target_E,target_left,cue_1,1,0.538867540200954
mGCP-III,2,2018-01-09_18:44,1,78,99,26_Caucasian_female_neutral_right.jpg,99,cue_right,target_E,target_left,cue_1,1,0.5927203584305971
mGCP-III,2,2018-01-09_18:44,1,79,99,61_Caucasian_female_neutral_left.jpg,99,cue_left,target_E,target_right,cue_1,1,0.43614007461110305
mGCP-III,2,2018-01-09_18:44,1,80,99,37_Caucasian_female_neutral_left.jpg,99,cue_left,target_E,target_left,cue_1,1,0.37592992555983074
mGCP-III,2,2018-01-09_18:44,1,81,99,37_Caucasian_female_neutral_left.jpg,99,cue_left,target_F,target_right,cue_1,1,0.5254089776153705
mGCP-III,2,2018-01-09_18:44,1,82,99,61_Caucasian_female_neutral_left.jpg,99,cue_left,target_E,target_left,cue_1,1,0.6382701675975113
mGCP-III,2,2018-01-09_18:44,1,83,99,61_Caucasian_female_neutral_right.jpg,99,cue_right,target_E,target_left,cue_1,1,0.6727614132305462
mGCP-III,2,2018-01-09_18:44,1,84,99,61_Caucasian_female_neutral_right.jpg,99,cue_right,target_E,target_right,cue_1,1,0.4772106756699941
mGCP-III,2,2018-01-09_18:44,1,85,99,37_Caucasian_female_neutral_right.jpg,99,cue_right,target_E,target_right,cue_1,1,0.4665412477861537
mGCP-III,2,2018-01-09_18:44,1,86,99,26_Caucasian_female_neutral_left.jpg,99,cue_left,target_E,target_right,cue_1,1,0.4245236841379665
mGCP-III,2,2018-01-09_18:44,1,87,99,26_Caucasian_female_neutral_right.jpg,99,cue_right,target_E,target_right,cue_1,1,0.4248065482242964
mGCP-III,2,2018-01-09_18:44,1,88,99,26_Caucasian_female_neutral_right.jpg,99,cue_right,target_E,target_left,cue_1,1,0.4233752401469246
mGCP-III,2,2018-01-09_18:44,1,89,99,26_Caucasian_female_neutral_left.jpg,99,cue_left,target_F,target_left,cue_1,1,0.5385803304361616
mGCP-III,2,2018-01-09_18:44,1,90,99,26_Caucasian_female_neutral_right.jpg,99,cue_right,target_F,target_right,cue_1,0,0.4088993940149521
mGCP-III,2,2018-01-09_18:44,1,91,99,26_Caucasian_female_neutral_right.jpg,99,cue_right,target_F,target_left,cue_1,1,0.5739972053343081
mGCP-III,2,2018-01-09_18:44,1,92,99,61_Caucasian_female_neutral_left.jpg,99,cue_left,target_F,target_right,cue_1,0,0.49119190471537877
mGCP-III,2,2018-01-09_18:44,1,93,99,37_Caucasian_female_neutral_left.jpg,99,cue_left,target_F,target_left,cue_1,1,0.6473921393007913
mGCP-III,2,2018-01-09_18:44,1,94,99,26_Caucasian_female_neutral_right.jpg,99,cue_right,target_E,target_left,cue_1,1,0.6117244003071391
mGCP-III,2,2018-01-09_18:44,1,95,99,37_Caucasian_female_neutral_left.jpg,99,cue_left,target_E,target_right,cue_1,1,0.5795541414117906
mGCP-III,2,2018-01-09_18:44,1,96,99,37_Caucasian_female_neutral_right.jpg,99,cue_right,target_F,target_right,cue_1,99,99
mGCP-III,2,2018-01-09_18:44,2,97,37_Caucasian_female_neutral_right.jpg,26_Caucasian_female_neutral_right.jpg,61_Caucasian_female_neutral_right.jpg,cue_right,target_E,target_right,cue_3,1,0.5910117171315505
mGCP-III,2,2018-01-09_18:44,2,98,26_Caucasian_female_neutral_right.jpg,61_Caucasian_female_neutral_right.jpg,37_Caucasian_female_neutral_right.jpg,cue_right,target_E,target_left,cue_3,1,0.5133335255959537
mGCP-III,2,2018-01-09_18:44,2,99,37_Caucasian_female_neutral_left.jpg,26_Caucasian_female_neutral_left.jpg,61_Caucasian_female_neutral_left.jpg,cue_left,target_F,target_left,cue_3,1,0.6481297192567581
mGCP-III,2,2018-01-09_18:44,2,100,26_Caucasian_female_neutral_right.jpg,61_Caucasian_female_neutral_right.jpg,37_Caucasian_female_neutral_right.jpg,cue_right,target_E,target_right,cue_3,1,0.48651516582140175
mGCP-III,2,2018-01-09_18:44,2,101,61_Caucasian_female_neutral_right.jpg,37_Caucasian_female_neutral_right.jpg,26_Caucasian_female_neutral_right.jpg,cue_right,target_E,target_right,cue_3,1,0.4641301870087773
mGCP-III,2,2018-01-09_18:44,2,102,26_Caucasian_female_neutral_right.jpg,37_Caucasian_female_neutral_right.jpg,61_Caucasian_female_neutral_right.jpg,cue_right,target_E,target_left,cue_3,1,0.5609009142117429
mGCP-III,2,2018-01-09_18:44,2,103,37_Caucasian_female_neutral_right.jpg,26_Caucasian_female_neutral_right.jpg,61_Caucasian_female_neutral_right.jpg,cue_right,target_E,target_right,cue_3,1,0.3780008383200766
mGCP-III,2,2018-01-09_18:45,2,104,26_Caucasian_female_neutral_left.jpg,37_Caucasian_female_neutral_left.jpg,61_Caucasian_female_neutral_left.jpg,cue_left,target_E,target_left,cue_3,1,0.3996861630876083
mGCP-III,2,2018-01-09_18:45,2,105,37_Caucasian_female_neutral_right.jpg,61_Caucasian_female_neutral_right.jpg,26_Caucasian_female_neutral_right.jpg,cue_right,target_E,target_right,cue_3,1,0.33847295270243194
mGCP-III,2,2018-01-09_18:45,2,106,26_Caucasian_female_neutral_right.jpg,37_Caucasian_female_neutral_right.jpg,61_Caucasian_female_neutral_right.jpg,cue_right,target_F,target_left,cue_3,1,0.5379675899403082
mGCP-III,2,2018-01-09_18:45,2,107,37_Caucasian_female_neutral_right.jpg,26_Caucasian_female_neutral_right.jpg,61_Caucasian_female_neutral_right.jpg,cue_right,target_F,target_left,cue_3,1,0.5115225633489899
mGCP-III,2,2018-01-09_18:45,2,108,26_Caucasian_female_neutral_right.jpg,61_Caucasian_female_neutral_right.jpg,37_Caucasian_female_neutral_right.jpg,cue_right,target_E,target_left,cue_3,0,0.43414777910220437
mGCP-III,2,2018-01-09_18:45,2,109,37_Caucasian_female_neutral_left.jpg,26_Caucasian_female_neutral_left.jpg,61_Caucasian_female_neutral_left.jpg,cue_left,target_E,target_left,cue_3,1,0.6529557914254838
mGCP-III,2,2018-01-09_18:45,2,110,61_Caucasian_female_neutral_left.jpg,37_Caucasian_female_neutral_left.jpg,26_Caucasian_female_neutral_left.jpg,cue_left,target_E,target_right,cue_3,1,0.3868624644492229
mGCP-III,2,2018-01-09_18:45,2,111,26_Caucasian_female_neutral_left.jpg,37_Caucasian_female_neutral_left.jpg,61_Caucasian_female_neutral_left.jpg,cue_left,target_F,target_right,cue_3,0,0.4065325801366271
mGCP-III,2,2018-01-09_18:45,2,112,37_Caucasian_female_neutral_left.jpg,26_Caucasian_female_neutral_left.jpg,61_Caucasian_female_neutral_left.jpg,cue_left,target_E,target_right,cue_3,1,0.5709018979159737
mGCP-III,2,2018-01-09_18:45,2,113,37_Caucasian_female_neutral_right.jpg,26_Caucasian_female_neutral_right.jpg,61_Caucasian_female_neutral_right.jpg,cue_right,target_F,target_right,cue_3,1,0.4012897180091386
mGCP-III,2,2018-01-09_18:45,2,114,26_Caucasian_female_neutral_left.jpg,37_Caucasian_female_neutral_left.jpg,61_Caucasian_female_neutral_left.jpg,cue_left,target_F,target_right,cue_3,1,0.6529020630514424
mGCP-III,2,2018-01-09_18:45,2,115,37_Caucasian_female_neutral_right.jpg,61_Caucasian_female_neutral_right.jpg,26_Caucasian_female_neutral_right.jpg,cue_right,target_F,target_right,cue_3,1,0.5773050558800605
mGCP-III,2,2018-01-09_18:45,2,116,61_Caucasian_female_neutral_left.jpg,37_Caucasian_female_neutral_left.jpg,26_Caucasian_female_neutral_left.jpg,cue_left,target_E,target_left,cue_3,1,0.5558903482906317
mGCP-III,2,2018-01-09_18:45,2,117,37_Caucasian_female_neutral_left.jpg,61_Caucasian_female_neutral_left.jpg,26_Caucasian_female_neutral_left.jpg,cue_left,target_E,target_left,cue_3,1,0.4374267901530402
mGCP-III,2,2018-01-09_18:45,2,118,37_Caucasian_female_neutral_right.jpg,61_Caucasian_female_neutral_right.jpg,26_Caucasian_female_neutral_right.jpg,cue_right,target_F,target_left,cue_3,1,0.5241360892287048
mGCP-III,2,2018-01-09_18:45,2,119,37_Caucasian_female_neutral_left.jpg,61_Caucasian_female_neutral_left.jpg,26_Caucasian_female_neutral_left.jpg,cue_left,target_E,target_right,cue_3,1,0.5516940042707574
mGCP-III,2,2018-01-09_18:45,2,120,61_Caucasian_female_neutral_left.jpg,26_Caucasian_female_neutral_left.jpg,37_Caucasian_female_neutral_left.jpg,cue_left,target_E,target_right,cue_3,1,0.5977068255979248
mGCP-III,2,2018-01-09_18:45,2,121,37_Caucasian_female_neutral_right.jpg,61_Caucasian_female_neutral_right.jpg,26_Caucasian_female_neutral_right.jpg,cue_right,target_E,target_left,cue_3,1,0.616697435378228
mGCP-III,2,2018-01-09_18:45,2,122,26_Caucasian_female_neutral_right.jpg,37_Caucasian_female_neutral_right.jpg,61_Caucasian_female_neutral_right.jpg,cue_right,target_F,target_right,cue_3,1,0.5748311803145043
mGCP-III,2,2018-01-09_18:45,2,123,26_Caucasian_female_neutral_left.jpg,61_Caucasian_female_neutral_left.jpg,37_Caucasian_female_neutral_left.jpg,cue_left,target_F,target_left,cue_3,1,0.7628923405864043
mGCP-III,2,2018-01-09_18:45,2,124,26_Caucasian_female_neutral_left.jpg,61_Caucasian_female_neutral_left.jpg,37_Caucasian_female_neutral_left.jpg,cue_left,target_F,target_right,cue_3,1,0.5914403589376889
mGCP-III,2,2018-01-09_18:45,2,125,61_Caucasian_female_neutral_left.jpg,37_Caucasian_female_neutral_left.jpg,26_Caucasian_female_neutral_left.jpg,cue_left,target_E,target_left,cue_3,1,0.5563490147760604
mGCP-III,2,2018-01-09_18:45,2,126,26_Caucasian_female_neutral_left.jpg,61_Caucasian_female_neutral_left.jpg,37_Caucasian_female_neutral_left.jpg,cue_left,target_E,target_right,cue_3,1,0.5601194824212143
mGCP-III,2,2018-01-09_18:45,2,127,61_Caucasian_female_neutral_right.jpg,37_Caucasian_female_neutral_right.jpg,26_Caucasian_female_neutral_right.jpg,cue_right,target_F,target_right,cue_3,1,0.6155881024824339
mGCP-III,2,2018-01-09_18:45,2,128,26_Caucasian_female_neutral_right.jpg,37_Caucasian_female_neutral_right.jpg,61_Caucasian_female_neutral_right.jpg,cue_right,target_E,target_right,cue_3,99,99
mGCP-III,2,2018-01-09_18:45,2,129,61_Caucasian_female_neutral_right.jpg,26_Caucasian_female_neutral_right.jpg,37_Caucasian_female_neutral_right.jpg,cue_right,target_E,target_left,cue_3,1,0.6505980639612972
mGCP-III,2,2018-01-09_18:45,2,130,61_Caucasian_female_neutral_right.jpg,37_Caucasian_female_neutral_right.jpg,26_Caucasian_female_neutral_right.jpg,cue_right,target_F,target_right,cue_3,1,0.5157453764950333
mGCP-III,2,2018-01-09_18:45,2,131,26_Caucasian_female_neutral_left.jpg,37_Caucasian_female_neutral_left.jpg,61_Caucasian_female_neutral_left.jpg,cue_left,target_E,target_left,cue_3,1,0.5872400643002038
mGCP-III,2,2018-01-09_18:45,2,132,61_Caucasian_female_neutral_right.jpg,26_Caucasian_female_neutral_right.jpg,37_Caucasian_female_neutral_right.jpg,cue_right,target_F,target_right,cue_3,1,0.4926571880860138
mGCP-III,2,2018-01-09_18:46,2,133,61_Caucasian_female_neutral_left.jpg,26_Caucasian_female_neutral_left.jpg,37_Caucasian_female_neutral_left.jpg,cue_left,target_F,target_left,cue_3,1,0.7851433935229579
mGCP-III,2,2018-01-09_18:46,2,134,37_Caucasian_female_neutral_left.jpg,61_Caucasian_female_neutral_left.jpg,26_Caucasian_female_neutral_left.jpg,cue_left,target_F,target_right,cue_3,1,0.6956283671606798
mGCP-III,2,2018-01-09_18:46,2,135,37_Caucasian_female_neutral_left.jpg,26_Caucasian_female_neutral_left.jpg,61_Caucasian_female_neutral_left.jpg,cue_left,target_E,target_left,cue_3,1,0.6014978364455601
mGCP-III,2,2018-01-09_18:46,2,136,26_Caucasian_female_neutral_left.jpg,61_Caucasian_female_neutral_left.jpg,37_Caucasian_female_neutral_left.jpg,cue_left,target_F,target_left,cue_3,1,0.6619853187221452
mGCP-III,2,2018-01-09_18:46,2,137,61_Caucasian_female_neutral_left.jpg,26_Caucasian_female_neutral_left.jpg,37_Caucasian_female_neutral_left.jpg,cue_left,target_E,target_right,cue_3,1,0.46858213586892816
mGCP-III,2,2018-01-09_18:46,2,138,61_Caucasian_female_neutral_right.jpg,37_Caucasian_female_neutral_right.jpg,26_Caucasian_female_neutral_right.jpg,cue_right,target_F,target_left,cue_3,1,0.5536523244827549
mGCP-III,2,2018-01-09_18:46,2,139,26_Caucasian_female_neutral_left.jpg,37_Caucasian_female_neutral_left.jpg,61_Caucasian_female_neutral_left.jpg,cue_left,target_F,target_left,cue_3,1,0.6001230221736478
mGCP-III,2,2018-01-09_18:46,2,140,61_Caucasian_female_neutral_right.jpg,37_Caucasian_female_neutral_right.jpg,26_Caucasian_female_neutral_right.jpg,cue_right,target_E,target_left,cue_3,1,0.5835209546585247
mGCP-III,2,2018-01-09_18:46,2,141,61_Caucasian_female_neutral_left.jpg,37_Caucasian_female_neutral_left.jpg,26_Caucasian_female_neutral_left.jpg,cue_left,target_F,target_left,cue_3,1,0.6277160976933374
mGCP-III,2,2018-01-09_18:46,2,142,37_Caucasian_female_neutral_right.jpg,61_Caucasian_female_neutral_right.jpg,26_Caucasian_female_neutral_right.jpg,cue_right,target_F,target_left,cue_3,1,0.5613572103284241
mGCP-III,2,2018-01-09_18:46,2,143,61_Caucasian_female_neutral_left.jpg,37_Caucasian_female_neutral_left.jpg,26_Caucasian_female_neutral_left.jpg,cue_left,target_E,target_right,cue_3,1,0.6212588162925385
mGCP-III,2,2018-01-09_18:46,2,144,37_Caucasian_female_neutral_right.jpg,61_Caucasian_female_neutral_right.jpg,26_Caucasian_female_neutral_right.jpg,cue_right,target_E,target_left,cue_3,1,0.5479338082241156
mGCP-III,2,2018-01-09_18:46,2,145,61_Caucasian_female_neutral_left.jpg,26_Caucasian_female_neutral_left.jpg,37_Caucasian_female_neutral_left.jpg,cue_left,target_F,target_right,cue_3,1,0.6852967169197655
mGCP-III,2,2018-01-09_18:46,2,146,26_Caucasian_female_neutral_left.jpg,61_Caucasian_female_neutral_left.jpg,37_Caucasian_female_neutral_left.jpg,cue_left,target_E,target_right,cue_3,1,0.4870240051259316
mGCP-III,2,2018-01-09_18:46,2,147,61_Caucasian_female_neutral_right.jpg,26_Caucasian_female_neutral_right.jpg,37_Caucasian_female_neutral_right.jpg,cue_right,target_F,target_right,cue_3,1,0.5414571688070282
mGCP-III,2,2018-01-09_18:46,2,148,26_Caucasian_female_neutral_right.jpg,61_Caucasian_female_neutral_right.jpg,37_Caucasian_female_neutral_right.jpg,cue_right,target_F,target_right,cue_3,1,0.4699198143534886
mGCP-III,2,2018-01-09_18:46,2,149,61_Caucasian_female_neutral_right.jpg,37_Caucasian_female_neutral_right.jpg,26_Caucasian_female_neutral_right.jpg,cue_right,target_E,target_right,cue_3,1,0.6974496010079747
mGCP-III,2,2018-01-09_18:46,2,150,61_Caucasian_female_neutral_right.jpg,26_Caucasian_female_neutral_right.jpg,37_Caucasian_female_neutral_right.jpg,cue_right,target_F,target_left,cue_3,1,0.4296029907745833
mGCP-III,2,2018-01-09_18:46,2,151,37_Caucasian_female_neutral_left.jpg,26_Caucasian_female_neutral_left.jpg,61_Caucasian_female_neutral_left.jpg,cue_left,target_E,target_right,cue_3,1,0.4796896870375349
mGCP-III,2,2018-01-09_18:46,2,152,37_Caucasian_female_neutral_left.jpg,61_Caucasian_female_neutral_left.jpg,26_Caucasian_female_neutral_left.jpg,cue_left,target_E,target_left,cue_3,1,0.49596701393966214
mGCP-III,2,2018-01-09_18:46,2,153,26_Caucasian_female_neutral_right.jpg,37_Caucasian_female_neutral_right.jpg,61_Caucasian_female_neutral_right.jpg,cue_right,target_F,target_right,cue_3,1,0.5632262466278917
mGCP-III,2,2018-01-09_18:46,2,154,37_Caucasian_female_neutral_right.jpg,61_Caucasian_female_neutral_right.jpg,26_Caucasian_female_neutral_right.jpg,cue_right,target_E,target_right,cue_3,0,0.4585495472401817
mGCP-III,2,2018-01-09_18:46,2,155,61_Caucasian_female_neutral_right.jpg,26_Caucasian_female_neutral_right.jpg,37_Caucasian_female_neutral_right.jpg,cue_right,target_F,target_left,cue_3,1,0.7055467829941335
mGCP-III,2,2018-01-09_18:46,2,156,37_Caucasian_female_neutral_left.jpg,26_Caucasian_female_neutral_left.jpg,61_Caucasian_female_neutral_left.jpg,cue_left,target_F,target_right,cue_3,1,0.5479519810560305
mGCP-III,2,2018-01-09_18:46,2,157,61_Caucasian_female_neutral_left.jpg,26_Caucasian_female_neutral_left.jpg,37_Caucasian_female_neutral_left.jpg,cue_left,target_E,target_left,cue_3,1,0.488769782214149
mGCP-III,2,2018-01-09_18:46,2,158,26_Caucasian_female_neutral_right.jpg,61_Caucasian_female_neutral_right.jpg,37_Caucasian_female_neutral_right.jpg,cue_right,target_F,target_right,cue_3,1,0.554256768689811
mGCP-III,2,2018-01-09_18:46,2,159,26_Caucasian_female_neutral_right.jpg,61_Caucasian_female_neutral_right.jpg,37_Caucasian_female_neutral_right.jpg,cue_right,target_F,target_left,cue_3,1,0.7336692410208343
mGCP-III,2,2018-01-09_18:46,2,160,37_Caucasian_female_neutral_left.jpg,26_Caucasian_female_neutral_left.jpg,61_Caucasian_female_neutral_left.jpg,cue_left,target_F,target_left,cue_3,1,0.4401096532910742
mGCP-III,2,2018-01-09_18:46,2,161,26_Caucasian_female_neutral_left.jpg,61_Caucasian_female_neutral_left.jpg,37_Caucasian_female_neutral_left.jpg,cue_left,target_E,target_left,cue_3,1,0.6003335899913509
mGCP-III,2,2018-01-09_18:46,2,162,26_Caucasian_female_neutral_right.jpg,61_Caucasian_female_neutral_right.jpg,37_Caucasian_female_neutral_right.jpg,cue_right,target_F,target_left,cue_3,1,0.7297308722045273
mGCP-III,2,2018-01-09_18:47,2,163,26_Caucasian_female_neutral_right.jpg,37_Caucasian_female_neutral_right.jpg,61_Caucasian_female_neutral_right.jpg,cue_right,target_E,target_left,cue_3,1,0.5515083253303601
mGCP-III,2,2018-01-09_18:47,2,164,37_Caucasian_female_neutral_left.jpg,61_Caucasian_female_neutral_left.jpg,26_Caucasian_female_neutral_left.jpg,cue_left,target_F,target_right,cue_3,1,0.5388138118269126
mGCP-III,2,2018-01-09_18:47,2,165,26_Caucasian_female_neutral_left.jpg,61_Caucasian_female_neutral_left.jpg,37_Caucasian_female_neutral_left.jpg,cue_left,target_E,target_left,cue_3,1,0.5449613649543608
mGCP-III,2,2018-01-09_18:47,2,166,26_Caucasian_female_neutral_left.jpg,37_Caucasian_female_neutral_left.jpg,61_Caucasian_female_neutral_left.jpg,cue_left,target_F,target_left,cue_3,1,0.5561210642481456
mGCP-III,2,2018-01-09_18:47,2,167,26_Caucasian_female_neutral_right.jpg,37_Caucasian_female_neutral_right.jpg,61_Caucasian_female_neutral_right.jpg,cue_right,target_E,target_right,cue_3,1,0.4971664208733273
mGCP-III,2,2018-01-09_18:47,2,168,26_Caucasian_female_neutral_right.jpg,61_Caucasian_female_neutral_right.jpg,37_Caucasian_female_neutral_right.jpg,cue_right,target_E,target_right,cue_3,1,0.48252938961923064
mGCP-III,2,2018-01-09_18:47,2,169,26_Caucasian_female_neutral_right.jpg,37_Caucasian_female_neutral_right.jpg,61_Caucasian_female_neutral_right.jpg,cue_right,target_F,target_left,cue_3,1,0.5162293269222573
mGCP-III,2,2018-01-09_18:47,2,170,61_Caucasian_female_neutral_right.jpg,26_Caucasian_female_neutral_right.jpg,37_Caucasian_female_neutral_right.jpg,cue_right,target_E,target_left,cue_3,1,0.582819325305536
mGCP-III,2,2018-01-09_18:47,2,171,37_Caucasian_female_neutral_right.jpg,26_Caucasian_female_neutral_right.jpg,61_Caucasian_female_neutral_right.jpg,cue_right,target_E,target_left,cue_3,1,0.5595328159870405
mGCP-III,2,2018-01-09_18:47,2,172,61_Caucasian_female_neutral_left.jpg,26_Caucasian_female_neutral_left.jpg,37_Caucasian_female_neutral_left.jpg,cue_left,target_F,target_right,cue_3,1,0.5731276748138043
mGCP-III,2,2018-01-09_18:47,2,173,61_Caucasian_female_neutral_left.jpg,37_Caucasian_female_neutral_left.jpg,26_Caucasian_female_neutral_left.jpg,cue_left,target_F,target_right,cue_3,0,0.7505308639883879
mGCP-III,2,2018-01-09_18:47,2,174,37_Caucasian_female_neutral_right.jpg,26_Caucasian_female_neutral_right.jpg,61_Caucasian_female_neutral_right.jpg,cue_right,target_F,target_left,cue_3,1,0.6586829990392289
mGCP-III,2,2018-01-09_18:47,2,175,61_Caucasian_female_neutral_right.jpg,37_Caucasian_female_neutral_right.jpg,26_Caucasian_female_neutral_right.jpg,cue_right,target_E,target_left,cue_3,1,0.6401921421474981
mGCP-III,2,2018-01-09_18:47,2,176,37_Caucasian_female_neutral_left.jpg,61_Caucasian_female_neutral_left.jpg,26_Caucasian_female_neutral_left.jpg,cue_left,target_E,target_right,cue_3,0,0.5396118362023117
mGCP-III,2,2018-01-09_18:47,2,177,37_Caucasian_female_neutral_left.jpg,26_Caucasian_female_neutral_left.jpg,61_Caucasian_female_neutral_left.jpg,cue_left,target_F,target_right,cue_3,99,99
mGCP-III,2,2018-01-09_18:47,2,178,61_Caucasian_female_neutral_right.jpg,26_Caucasian_female_neutral_right.jpg,37_Caucasian_female_neutral_right.jpg,cue_right,target_E,target_right,cue_3,1,0.6314340221488237
mGCP-III,2,2018-01-09_18:47,2,179,61_Caucasian_female_neutral_left.jpg,26_Caucasian_female_neutral_left.jpg,37_Caucasian_female_neutral_left.jpg,cue_left,target_F,target_left,cue_3,1,0.6451628068498394
mGCP-III,2,2018-01-09_18:47,2,180,37_Caucasian_female_neutral_left.jpg,61_Caucasian_female_neutral_left.jpg,26_Caucasian_female_neutral_left.jpg,cue_left,target_F,target_left,cue_3,99,99
mGCP-III,2,2018-01-09_18:47,2,181,61_Caucasian_female_neutral_left.jpg,37_Caucasian_female_neutral_left.jpg,26_Caucasian_female_neutral_left.jpg,cue_left,target_F,target_right,cue_3,1,0.7714754483058641
mGCP-III,2,2018-01-09_18:47,2,182,61_Caucasian_female_neutral_right.jpg,26_Caucasian_female_neutral_right.jpg,37_Caucasian_female_neutral_right.jpg,cue_right,target_E,target_right,cue_3,1,0.5865147312542831
mGCP-III,2,2018-01-09_18:47,2,183,37_Caucasian_female_neutral_right.jpg,61_Caucasian_female_neutral_right.jpg,26_Caucasian_female_neutral_right.jpg,cue_right,target_F,target_right,cue_3,1,0.6490948546797881
mGCP-III,2,2018-01-09_18:47,2,184,37_Caucasian_female_neutral_right.jpg,26_Caucasian_female_neutral_right.jpg,61_Caucasian_female_neutral_right.jpg,cue_right,target_E,target_left,cue_3,1,0.48212405644335377
mGCP-III,2,2018-01-09_18:47,2,185,61_Caucasian_female_neutral_right.jpg,37_Caucasian_female_neutral_right.jpg,26_Caucasian_female_neutral_right.jpg,cue_right,target_F,target_left,cue_3,1,0.4911358059707709
mGCP-III,2,2018-01-09_18:47,2,186,61_Caucasian_female_neutral_left.jpg,26_Caucasian_female_neutral_left.jpg,37_Caucasian_female_neutral_left.jpg,cue_left,target_E,target_left,cue_3,1,0.5523533620344097
mGCP-III,2,2018-01-09_18:47,2,187,26_Caucasian_female_neutral_left.jpg,37_Caucasian_female_neutral_left.jpg,61_Caucasian_female_neutral_left.jpg,cue_left,target_E,target_right,cue_3,1,0.4925690893542196
mGCP-III,2,2018-01-09_18:47,2,188,37_Caucasian_female_neutral_left.jpg,61_Caucasian_female_neutral_left.jpg,26_Caucasian_female_neutral_left.jpg,cue_left,target_F,target_left,cue_3,1,0.5227280897870514
mGCP-III,2,2018-01-09_18:47,2,189,61_Caucasian_female_neutral_left.jpg,37_Caucasian_female_neutral_left.jpg,26_Caucasian_female_neutral_left.jpg,cue_left,target_F,target_left,cue_3,1,0.5589623470768856
mGCP-III,2,2018-01-09_18:47,2,190,26_Caucasian_female_neutral_left.jpg,61_Caucasian_female_neutral_left.jpg,37_Caucasian_female_neutral_left.jpg,cue_left,target_F,target_right,cue_3,1,0.5108398969514383
mGCP-III,2,2018-01-09_18:47,2,191,26_Caucasian_female_neutral_left.jpg,37_Caucasian_female_neutral_left.jpg,61_Caucasian_female_neutral_left.jpg,cue_left,target_E,target_right,cue_3,1,0.5323537649946957
mGCP-III,2,2018-01-09_18:48,2,192,37_Caucasian_female_neutral_right.jpg,26_Caucasian_female_neutral_right.jpg,61_Caucasian_female_neutral_right.jpg,cue_right,target_F,target_right,cue_3,1,0.6705747474279633
mGCP-III,2,2018-01-09_18:48,3,193,99,61_Caucasian_female_neutral_right.jpg,99,cue_right,target_F,target_left,cue_1,1,0.6220461740067549
mGCP-III,2,2018-01-09_18:48,3,194,99,37_Caucasian_female_neutral_right.jpg,99,cue_right,target_F,target_right,cue_1,1,0.5825396217114758
mGCP-III,2,2018-01-09_18:48,3,195,99,26_Caucasian_female_neutral_right.jpg,99,cue_right,target_E,target_right,cue_1,1,0.5787430800028233
mGCP-III,2,2018-01-09_18:48,3,196,99,61_Caucasian_female_neutral_right.jpg,99,cue_right,target_E,target_left,cue_1,1,0.5175918942841236
mGCP-III,2,2018-01-09_18:48,3,197,99,26_Caucasian_female_neutral_left.jpg,99,cue_left,target_E,target_right,cue_1,1,0.5421951438238466
mGCP-III,2,2018-01-09_18:48,3,198,99,26_Caucasian_female_neutral_right.jpg,99,cue_right,target_F,target_left,cue_1,1,0.6395063152576768
mGCP-III,2,2018-01-09_18:48,3,199,99,26_Caucasian_female_neutral_right.jpg,99,cue_right,target_E,target_left,cue_1,1,0.5661781466951652
mGCP-III,2,2018-01-09_18:48,3,200,99,37_Caucasian_female_neutral_right.jpg,99,cue_right,target_F,target_left,cue_1,1,0.5448898588074371
mGCP-III,2,2018-01-09_18:48,3,201,99,37_Caucasian_female_neutral_left.jpg,99,cue_left,target_E,target_right,cue_1,1,0.5429291682248731
mGCP-III,2,2018-01-09_18:48,3,202,99,37_Caucasian_female_neutral_left.jpg,99,cue_left,target_E,target_right,cue_1,1,0.4897894361311046
mGCP-III,2,2018-01-09_18:48,3,203,99,26_Caucasian_female_neutral_left.jpg,99,cue_left,target_E,target_left,cue_1,1,0.6378474517150607
mGCP-III,2,2018-01-09_18:48,3,204,99,61_Caucasian_female_neutral_left.jpg,99,cue_left,target_F,target_right,cue_1,1,0.5052805905070272
mGCP-III,2,2018-01-09_18:48,3,205,99,37_Caucasian_female_neutral_left.jpg,99,cue_left,target_E,target_right,cue_1,1,0.5396683300077711
mGCP-III,2,2018-01-09_18:48,3,206,99,61_Caucasian_female_neutral_left.jpg,99,cue_left,target_F,target_left,cue_1,1,0.5211743126237707
mGCP-III,2,2018-01-09_18:48,3,207,99,61_Caucasian_female_neutral_right.jpg,99,cue_right,target_E,target_left,cue_1,1,0.6666201810876373
mGCP-III,2,2018-01-09_18:48,3,208,99,61_Caucasian_female_neutral_left.jpg,99,cue_left,target_E,target_right,cue_1,1,0.41625188493708265
mGCP-III,2,2018-01-09_18:48,3,209,99,37_Caucasian_female_neutral_right.jpg,99,cue_right,target_F,target_right,cue_1,1,0.6046358105140826
mGCP-III,2,2018-01-09_18:48,3,210,99,61_Caucasian_female_neutral_left.jpg,99,cue_left,target_E,target_left,cue_1,1,0.4437051086606516
mGCP-III,2,2018-01-09_18:48,3,211,99,61_Caucasian_female_neutral_left.jpg,99,cue_left,target_E,target_right,cue_1,1,0.530404136137804
mGCP-III,2,2018-01-09_18:48,3,212,99,26_Caucasian_female_neutral_right.jpg,99,cue_right,target_F,target_left,cue_1,1,0.5142038462399796
mGCP-III,2,2018-01-09_18:48,3,213,99,37_Caucasian_female_neutral_right.jpg,99,cue_right,target_F,target_left,cue_1,1,0.6224522973025159
mGCP-III,2,2018-01-09_18:48,3,214,99,26_Caucasian_female_neutral_right.jpg,99,cue_right,target_F,target_left,cue_1,1,0.5718729592608724
mGCP-III,2,2018-01-09_18:48,3,215,99,37_Caucasian_female_neutral_left.jpg,99,cue_left,target_E,target_left,cue_1,1,0.7002632295261719
mGCP-III,2,2018-01-09_18:48,3,216,99,37_Caucasian_female_neutral_right.jpg,99,cue_right,target_E,target_right,cue_1,1,0.482840303076955
mGCP-III,2,2018-01-09_18:48,3,217,99,37_Caucasian_female_neutral_right.jpg,99,cue_right,target_F,target_left,cue_1,1,0.5132643898214155
mGCP-III,2,2018-01-09_18:48,3,218,99,61_Caucasian_female_neutral_right.jpg,99,cue_right,target_F,target_left,cue_1,1,0.7686278444944037
mGCP-III,2,2018-01-09_18:48,3,219,99,26_Caucasian_female_neutral_left.jpg,99,cue_left,target_E,target_right,cue_1,1,0.5926117164981406
mGCP-III,2,2018-01-09_18:49,3,220,99,61_Caucasian_female_neutral_left.jpg,99,cue_left,target_E,target_left,cue_1,1,0.7109824351682619
mGCP-III,2,2018-01-09_18:49,3,221,99,26_Caucasian_female_neutral_right.jpg,99,cue_right,target_F,target_right,cue_1,1,0.521914262948485
mGCP-III,2,2018-01-09_18:49,3,222,99,61_Caucasian_female_neutral_left.jpg,99,cue_left,target_F,target_right,cue_1,1,0.6177720028554177
mGCP-III,2,2018-01-09_18:49,3,223,99,61_Caucasian_female_neutral_right.jpg,99,cue_right,target_E,target_left,cue_1,1,0.6243043459526234
mGCP-III,2,2018-01-09_18:49,3,224,99,26_Caucasian_female_neutral_right.jpg,99,cue_right,target_F,target_left,cue_1,1,0.6110456845253793
mGCP-III,2,2018-01-09_18:49,3,225,99,26_Caucasian_female_neutral_right.jpg,99,cue_right,target_E,target_right,cue_1,1,0.5670342451230681
mGCP-III,2,2018-01-09_18:49,3,226,99,26_Caucasian_female_neutral_left.jpg,99,cue_left,target_E,target_right,cue_1,1,0.4731782822018431
mGCP-III,2,2018-01-09_18:49,3,227,99,37_Caucasian_female_neutral_right.jpg,99,cue_right,target_F,target_right,cue_1,1,0.4676185806929425
mGCP-III,2,2018-01-09_18:49,3,228,99,61_Caucasian_female_neutral_right.jpg,99,cue_right,target_F,target_left,cue_1,1,0.6130103257237351
mGCP-III,2,2018-01-09_18:49,3,229,99,61_Caucasian_female_neutral_right.jpg,99,cue_right,target_F,target_right,cue_1,1,0.536290948626629
mGCP-III,2,2018-01-09_18:49,3,230,99,26_Caucasian_female_neutral_left.jpg,99,cue_left,target_E,target_left,cue_1,1,0.5370553927677975
mGCP-III,2,2018-01-09_18:49,3,231,99,61_Caucasian_female_neutral_right.jpg,99,cue_right,target_E,target_right,cue_1,1,0.5682146890994773
mGCP-III,2,2018-01-09_18:49,3,232,99,37_Caucasian_female_neutral_right.jpg,99,cue_right,target_E,target_right,cue_1,1,0.4242755854720599
mGCP-III,2,2018-01-09_18:49,3,233,99,61_Caucasian_female_neutral_left.jpg,99,cue_left,target_F,target_left,cue_1,1,0.546982499958176
mGCP-III,2,2018-01-09_18:49,3,234,99,61_Caucasian_female_neutral_left.jpg,99,cue_left,target_E,target_left,cue_1,1,0.40066315035437583
mGCP-III,2,2018-01-09_18:49,3,235,99,37_Caucasian_female_neutral_left.jpg,99,cue_left,target_E,target_right,cue_1,1,0.5194881898314634
mGCP-III,2,2018-01-09_18:49,3,236,99,26_Caucasian_female_neutral_right.jpg,99,cue_right,target_E,target_left,cue_1,1,0.4463160705927294
mGCP-III,2,2018-01-09_18:49,3,237,99,26_Caucasian_female_neutral_left.jpg,99,cue_left,target_F,target_right,cue_1,1,0.5763735006912611
mGCP-III,2,2018-01-09_18:49,3,238,99,26_Caucasian_female_neutral_left.jpg,99,cue_left,target_F,target_left,cue_1,1,0.5894697918138263
mGCP-III,2,2018-01-09_18:49,3,239,99,37_Caucasian_female_neutral_left.jpg,99,cue_left,target_F,target_left,cue_1,99,99
mGCP-III,2,2018-01-09_18:49,3,240,99,26_Caucasian_female_neutral_left.jpg,99,cue_left,target_F,target_right,cue_1,0,0.37978730675058614
mGCP-III,2,2018-01-09_18:49,3,241,99,37_Caucasian_female_neutral_left.jpg,99,cue_left,target_F,target_left,cue_1,1,0.4369633829282975
mGCP-III,2,2018-01-09_18:49,3,242,99,26_Caucasian_female_neutral_right.jpg,99,cue_right,target_E,target_right,cue_1,1,0.5774883644480724
mGCP-III,2,2018-01-09_18:49,3,243,99,61_Caucasian_female_neutral_right.jpg,99,cue_right,target_F,target_right,cue_1,1,0.5730684155787458
mGCP-III,2,2018-01-09_18:49,3,244,99,37_Caucasian_female_neutral_left.jpg,99,cue_left,target_F,target_right,cue_1,1,0.6044548723148182
mGCP-III,2,2018-01-09_18:49,3,245,99,37_Caucasian_female_neutral_left.jpg,99,cue_left,target_F,target_right,cue_1,1,0.39272241275102715
mGCP-III,2,2018-01-09_18:49,3,246,99,26_Caucasian_female_neutral_left.jpg,99,cue_left,target_E,target_left,cue_1,1,0.49736434672013274
mGCP-III,2,2018-01-09_18:49,3,247,99,61_Caucasian_female_neutral_left.jpg,99,cue_left,target_E,target_right,cue_1,1,0.48457699374739605
mGCP-III,2,2018-01-09_18:49,3,248,99,37_Caucasian_female_neutral_left.jpg,99,cue_left,target_F,target_left,cue_1,0,0.34120717384394084
mGCP-III,2,2018-01-09_18:49,3,249,99,26_Caucasian_female_neutral_left.jpg,99,cue_left,target_F,target_left,cue_1,1,0.5105475513882993
mGCP-III,2,2018-01-09_18:50,3,250,99,37_Caucasian_female_neutral_left.jpg,99,cue_left,target_E,target_left,cue_1,1,0.537065269307277
mGCP-III,2,2018-01-09_18:50,3,251,99,26_Caucasian_female_neutral_right.jpg,99,cue_right,target_E,target_left,cue_1,1,0.545328377153055
mGCP-III,2,2018-01-09_18:50,3,252,99,37_Caucasian_female_neutral_left.jpg,99,cue_left,target_E,target_left,cue_1,99,99
mGCP-III,2,2018-01-09_18:50,3,253,99,37_Caucasian_female_neutral_right.jpg,99,cue_right,target_E,target_left,cue_1,1,0.5169459686148912
mGCP-III,2,2018-01-09_18:50,3,254,99,26_Caucasian_female_neutral_left.jpg,99,cue_left,target_E,target_right,cue_1,1,0.5809593754220259
mGCP-III,2,2018-01-09_18:50,3,255,99,26_Caucasian_female_neutral_right.jpg,99,cue_right,target_E,target_right,cue_1,1,0.41280497271873173
mGCP-III,2,2018-01-09_18:50,3,256,99,26_Caucasian_female_neutral_left.jpg,99,cue_left,target_E,target_left,cue_1,1,0.48402311742393067
mGCP-III,2,2018-01-09_18:50,3,257,99,61_Caucasian_female_neutral_left.jpg,99,cue_left,target_F,target_left,cue_1,0,0.3900593026919523
mGCP-III,2,2018-01-09_18:50,3,258,99,26_Caucasian_female_neutral_right.jpg,99,cue_right,target_E,target_left,cue_1,1,0.5677331090428197
mGCP-III,2,2018-01-09_18:50,3,259,99,61_Caucasian_female_neutral_left.jpg,99,cue_left,target_E,target_right,cue_1,1,0.5635197773754044
mGCP-III,2,2018-01-09_18:50,3,260,99,61_Caucasian_female_neutral_left.jpg,99,cue_left,target_F,target_right,cue_1,1,0.6333030584482913
mGCP-III,2,2018-01-09_18:50,3,261,99,37_Caucasian_female_neutral_right.jpg,99,cue_right,target_E,target_left,cue_1,1,0.5413489219354233
mGCP-III,2,2018-01-09_18:50,3,262,99,37_Caucasian_female_neutral_right.jpg,99,cue_right,target_E,target_left,cue_1,1,0.47975921787292464
mGCP-III,2,2018-01-09_18:50,3,263,99,37_Caucasian_female_neutral_right.jpg,99,cue_right,target_F,target_left,cue_1,1,0.5428679336819187
mGCP-III,2,2018-01-09_18:50,3,264,99,26_Caucasian_female_neutral_left.jpg,99,cue_left,target_F,target_left,cue_1,1,0.4540138453266991
mGCP-III,2,2018-01-09_18:50,3,265,99,37_Caucasian_female_neutral_left.jpg,99,cue_left,target_F,target_right,cue_1,1,0.4315067924926552
mGCP-III,2,2018-01-09_18:50,3,266,99,61_Caucasian_female_neutral_right.jpg,99,cue_right,target_E,target_right,cue_1,0,0.3690313603819959
mGCP-III,2,2018-01-09_18:50,3,267,99,26_Caucasian_female_neutral_right.jpg,99,cue_right,target_F,target_right,cue_1,1,0.5013931846351625
mGCP-III,2,2018-01-09_18:50,3,268,99,37_Caucasian_female_neutral_right.jpg,99,cue_right,target_E,target_left,cue_1,1,0.6330284906562156
mGCP-III,2,2018-01-09_18:50,3,269,99,61_Caucasian_female_neutral_right.jpg,99,cue_right,target_E,target_right,cue_1,1,0.531637913427403
mGCP-III,2,2018-01-09_18:50,3,270,99,26_Caucasian_female_neutral_left.jpg,99,cue_left,target_F,target_left,cue_1,1,0.5216780161281349
mGCP-III,2,2018-01-09_18:50,3,271,99,37_Caucasian_female_neutral_right.jpg,99,cue_right,target_E,target_right,cue_1,1,0.5398366262361378
mGCP-III,2,2018-01-09_18:50,3,272,99,61_Caucasian_female_neutral_left.jpg,99,cue_left,target_F,target_right,cue_1,1,0.550835535472288
mGCP-III,2,2018-01-09_18:50,3,273,99,26_Caucasian_female_neutral_right.jpg,99,cue_right,target_F,target_right,cue_1,1,0.4677201115191565
mGCP-III,2,2018-01-09_18:50,3,274,99,37_Caucasian_female_neutral_right.jpg,99,cue_right,target_E,target_right,cue_1,1,0.572489255313485
mGCP-III,2,2018-01-09_18:50,3,275,99,26_Caucasian_female_neutral_left.jpg,99,cue_left,target_F,target_right,cue_1,1,0.48195892070725677
mGCP-III,2,2018-01-09_18:50,3,276,99,37_Caucasian_female_neutral_left.jpg,99,cue_left,target_E,target_left,cue_1,1,0.5347442825695907
mGCP-III,2,2018-01-09_18:50,3,277,99,61_Caucasian_female_neutral_right.jpg,99,cue_right,target_E,target_left,cue_1,1,0.3891617228000541
mGCP-III,2,2018-01-09_18:50,3,278,99,61_Caucasian_female_neutral_right.jpg,99,cue_right,target_E,target_right,cue_1,1,0.49024415200256044
mGCP-III,2,2018-01-09_18:50,3,279,99,37_Caucasian_female_neutral_right.jpg,99,cue_right,target_F,target_right,cue_1,1,0.4670911734956462
mGCP-III,2,2018-01-09_18:50,3,280,99,61_Caucasian_female_neutral_left.jpg,99,cue_left,target_F,target_left,cue_1,1,0.6821338539721182
mGCP-III,2,2018-01-09_18:51,3,281,99,61_Caucasian_female_neutral_right.jpg,99,cue_right,target_F,target_right,cue_1,1,0.5929688521609933
mGCP-III,2,2018-01-09_18:51,3,282,99,37_Caucasian_female_neutral_left.jpg,99,cue_left,target_F,target_left,cue_1,1,0.5317121850021067
mGCP-III,2,2018-01-09_18:51,3,283,99,26_Caucasian_female_neutral_right.jpg,99,cue_right,target_F,target_right,cue_1,1,0.3897835497155029
mGCP-III,2,2018-01-09_18:51,3,284,99,61_Caucasian_female_neutral_right.jpg,99,cue_right,target_F,target_right,cue_1,1,0.4800219338176248
mGCP-III,2,2018-01-09_18:51,3,285,99,37_Caucasian_female_neutral_left.jpg,99,cue_left,target_F,target_right,cue_1,1,0.521942707380731
mGCP-III,2,2018-01-09_18:51,3,286,99,61_Caucasian_female_neutral_left.jpg,99,cue_left,target_E,target_left,cue_1,1,0.5028355544345686
mGCP-III,2,2018-01-09_18:51,3,287,99,26_Caucasian_female_neutral_left.jpg,99,cue_left,target_F,target_right,cue_1,1,0.44830639079373213
mGCP-III,2,2018-01-09_18:51,3,288,99,61_Caucasian_female_neutral_right.jpg,99,cue_right,target_F,target_left,cue_1,1,0.5252118418920873
mGCP-III,2,2018-01-09_18:51,4,289,61_Caucasian_female_neutral_right.jpg,26_Caucasian_female_neutral_right.jpg,37_Caucasian_female_neutral_right.jpg,cue_right,target_E,target_right,cue_3,1,0.5932963582035882
mGCP-III,2,2018-01-09_18:51,4,290,26_Caucasian_female_neutral_left.jpg,61_Caucasian_female_neutral_left.jpg,37_Caucasian_female_neutral_left.jpg,cue_left,target_F,target_right,cue_3,1,0.44098471467259515
mGCP-III,2,2018-01-09_18:51,4,291,37_Caucasian_female_neutral_left.jpg,61_Caucasian_female_neutral_left.jpg,26_Caucasian_female_neutral_left.jpg,cue_left,target_E,target_right,cue_3,1,0.5056491829527658
mGCP-III,2,2018-01-09_18:51,4,292,37_Caucasian_female_neutral_right.jpg,61_Caucasian_female_neutral_right.jpg,26_Caucasian_female_neutral_right.jpg,cue_right,target_E,target_left,cue_3,1,0.655627987900516
mGCP-III,2,2018-01-09_18:51,4,293,37_Caucasian_female_neutral_left.jpg,26_Caucasian_female_neutral_left.jpg,61_Caucasian_female_neutral_left.jpg,cue_left,target_E,target_right,cue_3,1,0.3887066118677467
mGCP-III,2,2018-01-09_18:51,4,294,61_Caucasian_female_neutral_right.jpg,37_Caucasian_female_neutral_right.jpg,26_Caucasian_female_neutral_right.jpg,cue_right,target_F,target_left,cue_3,1,0.6250794567586127
mGCP-III,2,2018-01-09_18:51,4,295,37_Caucasian_female_neutral_left.jpg,61_Caucasian_female_neutral_left.jpg,26_Caucasian_female_neutral_left.jpg,cue_left,target_F,target_left,cue_3,1,0.5244315952859324
mGCP-III,2,2018-01-09_18:51,4,296,61_Caucasian_female_neutral_right.jpg,37_Caucasian_female_neutral_right.jpg,26_Caucasian_female_neutral_right.jpg,cue_right,target_F,target_right,cue_3,1,0.6067541306656494
mGCP-III,2,2018-01-09_18:51,4,297,37_Caucasian_female_neutral_right.jpg,26_Caucasian_female_neutral_right.jpg,61_Caucasian_female_neutral_right.jpg,cue_right,target_F,target_right,cue_3,1,0.4708952213750308
mGCP-III,2,2018-01-09_18:51,4,298,37_Caucasian_female_neutral_right.jpg,26_Caucasian_female_neutral_right.jpg,61_Caucasian_female_neutral_right.jpg,cue_right,target_F,target_left,cue_3,1,0.47375665234358166
mGCP-III,2,2018-01-09_18:51,4,299,61_Caucasian_female_neutral_left.jpg,37_Caucasian_female_neutral_left.jpg,26_Caucasian_female_neutral_left.jpg,cue_left,target_E,target_right,cue_3,1,0.4803051929666253
mGCP-III,2,2018-01-09_18:51,4,300,37_Caucasian_female_neutral_right.jpg,61_Caucasian_female_neutral_right.jpg,26_Caucasian_female_neutral_right.jpg,cue_right,target_F,target_left,cue_3,99,99
mGCP-III,2,2018-01-09_18:51,4,301,61_Caucasian_female_neutral_left.jpg,37_Caucasian_female_neutral_left.jpg,26_Caucasian_female_neutral_left.jpg,cue_left,target_F,target_right,cue_3,1,0.47663704626756953
mGCP-III,2,2018-01-09_18:51,4,302,37_Caucasian_female_neutral_right.jpg,26_Caucasian_female_neutral_right.jpg,61_Caucasian_female_neutral_right.jpg,cue_right,target_E,target_right,cue_3,1,0.549735684055122
mGCP-III,2,2018-01-09_18:51,4,303,37_Caucasian_female_neutral_left.jpg,61_Caucasian_female_neutral_left.jpg,26_Caucasian_female_neutral_left.jpg,cue_left,target_F,target_right,cue_3,1,0.5860627808142453
mGCP-III,2,2018-01-09_18:51,4,304,26_Caucasian_female_neutral_left.jpg,61_Caucasian_female_neutral_left.jpg,37_Caucasian_female_neutral_left.jpg,cue_left,target_F,target_right,cue_3,1,0.46682845754912705
mGCP-III,2,2018-01-09_18:51,4,305,26_Caucasian_female_neutral_left.jpg,61_Caucasian_female_neutral_left.jpg,37_Caucasian_female_neutral_left.jpg,cue_left,target_F,target_left,cue_3,1,0.47057522149953
mGCP-III,2,2018-01-09_18:51,4,306,37_Caucasian_female_neutral_left.jpg,61_Caucasian_female_neutral_left.jpg,26_Caucasian_female_neutral_left.jpg,cue_left,target_E,target_left,cue_3,1,0.5861354721437237
mGCP-III,2,2018-01-09_18:51,4,307,26_Caucasian_female_neutral_right.jpg,61_Caucasian_female_neutral_right.jpg,37_Caucasian_female_neutral_right.jpg,cue_right,target_E,target_right,cue_3,1,0.5571181996565429
mGCP-III,2,2018-01-09_18:51,4,308,26_Caucasian_female_neutral_right.jpg,37_Caucasian_female_neutral_right.jpg,61_Caucasian_female_neutral_right.jpg,cue_right,target_F,target_right,cue_3,1,0.4842850432451087
mGCP-III,2,2018-01-09_18:51,4,309,61_Caucasian_female_neutral_left.jpg,37_Caucasian_female_neutral_left.jpg,26_Caucasian_female_neutral_left.jpg,cue_left,target_E,target_left,cue_3,1,0.4458811077984137
mGCP-III,2,2018-01-09_18:52,4,310,37_Caucasian_female_neutral_left.jpg,26_Caucasian_female_neutral_left.jpg,61_Caucasian_female_neutral_left.jpg,cue_left,target_F,target_left,cue_3,1,0.5452469944702898
mGCP-III,2,2018-01-09_18:52,4,311,37_Caucasian_female_neutral_left.jpg,26_Caucasian_female_neutral_left.jpg,61_Caucasian_female_neutral_left.jpg,cue_left,target_E,target_right,cue_3,1,0.48569067231983354
mGCP-III,2,2018-01-09_18:52,4,312,37_Caucasian_female_neutral_left.jpg,26_Caucasian_female_neutral_left.jpg,61_Caucasian_female_neutral_left.jpg,cue_left,target_F,target_left,cue_3,1,0.5008333823861904
mGCP-III,2,2018-01-09_18:52,4,313,61_Caucasian_female_neutral_left.jpg,26_Caucasian_female_neutral_left.jpg,37_Caucasian_female_neutral_left.jpg,cue_left,target_F,target_right,cue_3,1,0.45548702993255574
mGCP-III,2,2018-01-09_18:52,4,314,26_Caucasian_female_neutral_left.jpg,37_Caucasian_female_neutral_left.jpg,61_Caucasian_female_neutral_left.jpg,cue_left,target_E,target_left,cue_3,1,0.484505882664962
mGCP-III,2,2018-01-09_18:52,4,315,61_Caucasian_female_neutral_left.jpg,26_Caucasian_female_neutral_left.jpg,37_Caucasian_female_neutral_left.jpg,cue_left,target_E,target_left,cue_3,1,0.6993083657052921
mGCP-III,2,2018-01-09_18:52,4,316,61_Caucasian_female_neutral_right.jpg,26_Caucasian_female_neutral_right.jpg,37_Caucasian_female_neutral_right.jpg,cue_right,target_E,target_left,cue_3,1,0.6039223293155374
mGCP-III,2,2018-01-09_18:52,4,317,37_Caucasian_female_neutral_left.jpg,26_Caucasian_female_neutral_left.jpg,61_Caucasian_female_neutral_left.jpg,cue_left,target_E,target_left,cue_3,1,0.47571023181808414
mGCP-III,2,2018-01-09_18:52,4,318,26_Caucasian_female_neutral_left.jpg,61_Caucasian_female_neutral_left.jpg,37_Caucasian_female_neutral_left.jpg,cue_left,target_E,target_left,cue_3,1,0.3341071272661793
mGCP-III,2,2018-01-09_18:52,4,319,37_Caucasian_female_neutral_right.jpg,26_Caucasian_female_neutral_right.jpg,61_Caucasian_female_neutral_right.jpg,cue_right,target_E,target_left,cue_3,1,0.479109736646933
mGCP-III,2,2018-01-09_18:52,4,320,61_Caucasian_female_neutral_right.jpg,37_Caucasian_female_neutral_right.jpg,26_Caucasian_female_neutral_right.jpg,cue_right,target_E,target_left,cue_3,1,0.42816101603420975
mGCP-III,2,2018-01-09_18:52,4,321,61_Caucasian_female_neutral_right.jpg,37_Caucasian_female_neutral_right.jpg,26_Caucasian_female_neutral_right.jpg,cue_right,target_E,target_right,cue_3,1,0.43161029862312716
mGCP-III,2,2018-01-09_18:52,4,322,61_Caucasian_female_neutral_right.jpg,37_Caucasian_female_neutral_right.jpg,26_Caucasian_female_neutral_right.jpg,cue_right,target_F,target_left,cue_3,1,0.5772307843035378
mGCP-III,2,2018-01-09_18:52,4,323,37_Caucasian_female_neutral_left.jpg,26_Caucasian_female_neutral_left.jpg,61_Caucasian_female_neutral_left.jpg,cue_left,target_F,target_right,cue_3,1,0.6251983702914004
mGCP-III,2,2018-01-09_18:52,4,324,61_Caucasian_female_neutral_left.jpg,37_Caucasian_female_neutral_left.jpg,26_Caucasian_female_neutral_left.jpg,cue_left,target_F,target_right,cue_3,1,0.5470694135037775
mGCP-III,2,2018-01-09_18:52,4,325,26_Caucasian_female_neutral_right.jpg,37_Caucasian_female_neutral_right.jpg,61_Caucasian_female_neutral_right.jpg,cue_right,target_E,target_right,cue_3,0,0.37344261789985467
mGCP-III,2,2018-01-09_18:52,4,326,61_Caucasian_female_neutral_right.jpg,26_Caucasian_female_neutral_right.jpg,37_Caucasian_female_neutral_right.jpg,cue_right,target_E,target_right,cue_3,1,0.4831251424693619
mGCP-III,2,2018-01-09_18:52,4,327,61_Caucasian_female_neutral_left.jpg,26_Caucasian_female_neutral_left.jpg,37_Caucasian_female_neutral_left.jpg,cue_left,target_F,target_left,cue_3,1,0.5388422562591586
mGCP-III,2,2018-01-09_18:52,4,328,61_Caucasian_female_neutral_left.jpg,37_Caucasian_female_neutral_left.jpg,26_Caucasian_female_neutral_left.jpg,cue_left,target_F,target_left,cue_3,1,0.5099948602492077
mGCP-III,2,2018-01-09_18:52,4,329,37_Caucasian_female_neutral_left.jpg,61_Caucasian_female_neutral_left.jpg,26_Caucasian_female_neutral_left.jpg,cue_left,target_F,target_left,cue_3,1,0.6098344257443387
mGCP-III,2,2018-01-09_18:52,4,330,61_Caucasian_female_neutral_right.jpg,26_Caucasian_female_neutral_right.jpg,37_Caucasian_female_neutral_right.jpg,cue_right,target_F,target_left,cue_3,1,0.3816677998347586
mGCP-III,2,2018-01-09_18:52,4,331,26_Caucasian_female_neutral_right.jpg,61_Caucasian_female_neutral_right.jpg,37_Caucasian_female_neutral_right.jpg,cue_right,target_F,target_left,cue_3,1,0.4280744975512789
mGCP-III,2,2018-01-09_18:52,4,332,37_Caucasian_female_neutral_right.jpg,26_Caucasian_female_neutral_right.jpg,61_Caucasian_female_neutral_right.jpg,cue_right,target_F,target_right,cue_3,1,0.5820928070734226
mGCP-III,2,2018-01-09_18:52,4,333,26_Caucasian_female_neutral_left.jpg,37_Caucasian_female_neutral_left.jpg,61_Caucasian_female_neutral_left.jpg,cue_left,target_F,target_right,cue_3,1,0.4806935384913231
mGCP-III,2,2018-01-09_18:52,4,334,26_Caucasian_female_neutral_right.jpg,37_Caucasian_female_neutral_right.jpg,61_Caucasian_female_neutral_right.jpg,cue_right,target_E,target_left,cue_3,1,0.5199448810089962
mGCP-III,2,2018-01-09_18:52,4,335,61_Caucasian_female_neutral_right.jpg,26_Caucasian_female_neutral_right.jpg,37_Caucasian_female_neutral_right.jpg,cue_right,target_F,target_left,cue_3,1,0.4691245554076886
mGCP-III,2,2018-01-09_18:52,4,336,37_Caucasian_female_neutral_right.jpg,61_Caucasian_female_neutral_right.jpg,26_Caucasian_female_neutral_right.jpg,cue_right,target_E,target_right,cue_3,1,0.558065162245839
mGCP-III,2,2018-01-09_18:52,4,337,61_Caucasian_female_neutral_left.jpg,26_Caucasian_female_neutral_left.jpg,37_Caucasian_female_neutral_left.jpg,cue_left,target_F,target_right,cue_3,0,0.585483225488133
mGCP-III,2,2018-01-09_18:52,4,338,26_Caucasian_female_neutral_left.jpg,37_Caucasian_female_neutral_left.jpg,61_Caucasian_female_neutral_left.jpg,cue_left,target_E,target_left,cue_3,1,0.5996465779171558
mGCP-III,2,2018-01-09_18:52,4,339,26_Caucasian_female_neutral_right.jpg,37_Caucasian_female_neutral_right.jpg,61_Caucasian_female_neutral_right.jpg,cue_right,target_F,target_left,cue_3,1,0.562127975455951
mGCP-III,2,2018-01-09_18:52,4,340,26_Caucasian_female_neutral_right.jpg,61_Caucasian_female_neutral_right.jpg,37_Caucasian_female_neutral_right.jpg,cue_right,target_F,target_right,cue_3,1,0.5711144410415727
mGCP-III,2,2018-01-09_18:53,4,341,37_Caucasian_female_neutral_right.jpg,61_Caucasian_female_neutral_right.jpg,26_Caucasian_female_neutral_right.jpg,cue_right,target_F,target_left,cue_3,1,0.4760894909268245
mGCP-III,2,2018-01-09_18:53,4,342,37_Caucasian_female_neutral_left.jpg,26_Caucasian_female_neutral_left.jpg,61_Caucasian_female_neutral_left.jpg,cue_left,target_E,target_left,cue_3,1,0.5736274277041957
mGCP-III,2,2018-01-09_18:53,4,343,61_Caucasian_female_neutral_left.jpg,26_Caucasian_female_neutral_left.jpg,37_Caucasian_female_neutral_left.jpg,cue_left,target_E,target_left,cue_3,1,0.6647598361432756
mGCP-III,2,2018-01-09_18:53,4,344,26_Caucasian_female_neutral_right.jpg,61_Caucasian_female_neutral_right.jpg,37_Caucasian_female_neutral_right.jpg,cue_right,target_F,target_right,cue_3,1,0.49183308964529715
mGCP-III,2,2018-01-09_18:53,4,345,37_Caucasian_female_neutral_right.jpg,61_Caucasian_female_neutral_right.jpg,26_Caucasian_female_neutral_right.jpg,cue_right,target_F,target_right,cue_3,1,0.5306767286219838
mGCP-III,2,2018-01-09_18:53,4,346,26_Caucasian_female_neutral_left.jpg,37_Caucasian_female_neutral_left.jpg,61_Caucasian_female_neutral_left.jpg,cue_left,target_F,target_left,cue_3,1,0.6220319517906319
mGCP-III,2,2018-01-09_18:53,4,347,61_Caucasian_female_neutral_right.jpg,26_Caucasian_female_neutral_right.jpg,37_Caucasian_female_neutral_right.jpg,cue_right,target_F,target_right,cue_3,1,0.42788210256549064
mGCP-III,2,2018-01-09_18:53,4,348,37_Caucasian_female_neutral_right.jpg,26_Caucasian_female_neutral_right.jpg,61_Caucasian_female_neutral_right.jpg,cue_right,target_E,target_right,cue_3,1,0.5039389614066749
mGCP-III,2,2018-01-09_18:53,4,349,61_Caucasian_female_neutral_left.jpg,26_Caucasian_female_neutral_left.jpg,37_Caucasian_female_neutral_left.jpg,cue_left,target_E,target_right,cue_3,1,0.5016171845472854
mGCP-III,2,2018-01-09_18:53,4,350,37_Caucasian_female_neutral_left.jpg,61_Caucasian_female_neutral_left.jpg,26_Caucasian_female_neutral_left.jpg,cue_left,target_E,target_left,cue_3,1,0.48936276963468117
mGCP-III,2,2018-01-09_18:53,4,351,26_Caucasian_female_neutral_left.jpg,37_Caucasian_female_neutral_left.jpg,61_Caucasian_female_neutral_left.jpg,cue_left,target_E,target_right,cue_3,1,0.47270460337676923
mGCP-III,2,2018-01-09_18:53,4,352,61_Caucasian_female_neutral_right.jpg,37_Caucasian_female_neutral_right.jpg,26_Caucasian_female_neutral_right.jpg,cue_right,target_E,target_right,cue_3,1,0.4364494078217831
mGCP-III,2,2018-01-09_18:53,4,353,37_Caucasian_female_neutral_right.jpg,61_Caucasian_female_neutral_right.jpg,26_Caucasian_female_neutral_right.jpg,cue_right,target_F,target_right,cue_3,1,0.5501821036323236
mGCP-III,2,2018-01-09_18:53,4,354,26_Caucasian_female_neutral_left.jpg,61_Caucasian_female_neutral_left.jpg,37_Caucasian_female_neutral_left.jpg,cue_left,target_F,target_left,cue_3,1,0.6026810458552063
mGCP-III,2,2018-01-09_18:53,4,355,37_Caucasian_female_neutral_right.jpg,26_Caucasian_female_neutral_right.jpg,61_Caucasian_female_neutral_right.jpg,cue_right,target_F,target_left,cue_3,1,0.5616329633066925
mGCP-III,2,2018-01-09_18:53,4,356,26_Caucasian_female_neutral_left.jpg,37_Caucasian_female_neutral_left.jpg,61_Caucasian_female_neutral_left.jpg,cue_left,target_F,target_left,cue_3,1,0.6952431821264327
mGCP-III,2,2018-01-09_18:53,4,357,61_Caucasian_female_neutral_left.jpg,26_Caucasian_female_neutral_left.jpg,37_Caucasian_female_neutral_left.jpg,cue_left,target_F,target_left,cue_3,1,0.49308503976862994
mGCP-III,2,2018-01-09_18:53,4,358,37_Caucasian_female_neutral_left.jpg,26_Caucasian_female_neutral_left.jpg,61_Caucasian_female_neutral_left.jpg,cue_left,target_F,target_right,cue_3,0,0.47215546779079887
mGCP-III,2,2018-01-09_18:53,4,359,37_Caucasian_female_neutral_left.jpg,61_Caucasian_female_neutral_left.jpg,26_Caucasian_female_neutral_left.jpg,cue_left,target_E,target_right,cue_3,1,0.6255728886626457
mGCP-III,2,2018-01-09_18:53,4,360,37_Caucasian_female_neutral_right.jpg,26_Caucasian_female_neutral_right.jpg,61_Caucasian_female_neutral_right.jpg,cue_right,target_E,target_left,cue_3,1,0.5288045318302466
mGCP-III,2,2018-01-09_18:53,4,361,26_Caucasian_female_neutral_left.jpg,61_Caucasian_female_neutral_left.jpg,37_Caucasian_female_neutral_left.jpg,cue_left,target_E,target_right,cue_3,1,0.609739215906302
mGCP-III,2,2018-01-09_18:53,4,362,37_Caucasian_female_neutral_left.jpg,61_Caucasian_female_neutral_left.jpg,26_Caucasian_female_neutral_left.jpg,cue_left,target_F,target_right,cue_3,1,0.4114688744812156
mGCP-III,2,2018-01-09_18:53,4,363,26_Caucasian_female_neutral_right.jpg,37_Caucasian_female_neutral_right.jpg,61_Caucasian_female_neutral_right.jpg,cue_right,target_E,target_left,cue_3,1,0.6223965936223976
mGCP-III,2,2018-01-09_18:53,4,364,26_Caucasian_female_neutral_left.jpg,37_Caucasian_female_neutral_left.jpg,61_Caucasian_female_neutral_left.jpg,cue_left,target_E,target_right,cue_3,1,0.5520926213957864
mGCP-III,2,2018-01-09_18:53,4,365,61_Caucasian_female_neutral_right.jpg,37_Caucasian_female_neutral_right.jpg,26_Caucasian_female_neutral_right.jpg,cue_right,target_E,target_left,cue_3,1,0.46534184085248853
mGCP-III,2,2018-01-09_18:53,4,366,26_Caucasian_female_neutral_right.jpg,61_Caucasian_female_neutral_right.jpg,37_Caucasian_female_neutral_right.jpg,cue_right,target_E,target_right,cue_3,1,0.6497530272590666
mGCP-III,2,2018-01-09_18:53,4,367,61_Caucasian_female_neutral_right.jpg,26_Caucasian_female_neutral_right.jpg,37_Caucasian_female_neutral_right.jpg,cue_right,target_F,target_right,cue_3,1,0.5378451208507613
mGCP-III,2,2018-01-09_18:53,4,368,37_Caucasian_female_neutral_right.jpg,61_Caucasian_female_neutral_right.jpg,26_Caucasian_female_neutral_right.jpg,cue_right,target_E,target_right,cue_3,1,0.4854544254994835
mGCP-III,2,2018-01-09_18:53,4,369,61_Caucasian_female_neutral_left.jpg,26_Caucasian_female_neutral_left.jpg,37_Caucasian_female_neutral_left.jpg,cue_left,target_E,target_right,cue_3,1,0.5074960958045267
mGCP-III,2,2018-01-09_18:53,4,370,26_Caucasian_female_neutral_right.jpg,37_Caucasian_female_neutral_right.jpg,61_Caucasian_female_neutral_right.jpg,cue_right,target_E,target_right,cue_3,1,0.369727853934819
mGCP-III,2,2018-01-09_18:53,4,371,37_Caucasian_female_neutral_right.jpg,61_Caucasian_female_neutral_right.jpg,26_Caucasian_female_neutral_right.jpg,cue_right,target_E,target_left,cue_3,1,0.4270876337432128
mGCP-III,2,2018-01-09_18:53,4,372,61_Caucasian_female_neutral_left.jpg,37_Caucasian_female_neutral_left.jpg,26_Caucasian_female_neutral_left.jpg,cue_left,target_E,target_right,cue_3,1,0.6846049641062564
mGCP-III,2,2018-01-09_18:54,4,373,26_Caucasian_female_neutral_left.jpg,61_Caucasian_female_neutral_left.jpg,37_Caucasian_female_neutral_left.jpg,cue_left,target_E,target_right,cue_3,1,0.36053003040797194
mGCP-III,2,2018-01-09_18:54,4,374,26_Caucasian_female_neutral_left.jpg,37_Caucasian_female_neutral_left.jpg,61_Caucasian_female_neutral_left.jpg,cue_left,target_F,target_right,cue_3,1,0.77416226205969
mGCP-III,2,2018-01-09_18:54,4,375,26_Caucasian_female_neutral_right.jpg,61_Caucasian_female_neutral_right.jpg,37_Caucasian_female_neutral_right.jpg,cue_right,target_E,target_left,cue_3,1,0.6022654410808173
mGCP-III,2,2018-01-09_18:54,4,376,26_Caucasian_female_neutral_right.jpg,61_Caucasian_female_neutral_right.jpg,37_Caucasian_female_neutral_right.jpg,cue_right,target_E,target_left,cue_3,1,0.41875301975233015
mGCP-III,2,2018-01-09_18:54,4,377,61_Caucasian_female_neutral_left.jpg,37_Caucasian_female_neutral_left.jpg,26_Caucasian_female_neutral_left.jpg,cue_left,target_E,target_left,cue_3,1,0.4785151689829945
mGCP-III,2,2018-01-09_18:54,4,378,61_Caucasian_female_neutral_left.jpg,37_Caucasian_female_neutral_left.jpg,26_Caucasian_female_neutral_left.jpg,cue_left,target_F,target_left,cue_3,0,0.4362218523565389
mGCP-III,2,2018-01-09_18:54,4,379,26_Caucasian_female_neutral_right.jpg,61_Caucasian_female_neutral_right.jpg,37_Caucasian_female_neutral_right.jpg,cue_right,target_F,target_left,cue_3,1,0.45702302932477323
mGCP-III,2,2018-01-09_18:54,4,380,26_Caucasian_female_neutral_right.jpg,37_Caucasian_female_neutral_right.jpg,61_Caucasian_female_neutral_right.jpg,cue_right,target_F,target_right,cue_3,1,0.4325240760408633
mGCP-III,2,2018-01-09_18:54,4,381,61_Caucasian_female_neutral_right.jpg,37_Caucasian_female_neutral_right.jpg,26_Caucasian_female_neutral_right.jpg,cue_right,target_F,target_right,cue_3,1,0.5062864172705304
mGCP-III,2,2018-01-09_18:54,4,382,61_Caucasian_female_neutral_right.jpg,26_Caucasian_female_neutral_right.jpg,37_Caucasian_female_neutral_right.jpg,cue_right,target_E,target_left,cue_3,1,0.5911326059722342
mGCP-III,2,2018-01-09_18:54,4,383,26_Caucasian_female_neutral_right.jpg,37_Caucasian_female_neutral_right.jpg,61_Caucasian_female_neutral_right.jpg,cue_right,target_F,target_left,cue_3,1,0.45305187039957673
mGCP-III,2,2018-01-09_18:54,4,384,26_Caucasian_female_neutral_left.jpg,61_Caucasian_female_neutral_left.jpg,37_Caucasian_female_neutral_left.jpg,cue_left,target_E,target_left,cue_3,1,0.5573501008002495
