"experiment";"subject";"date";"block";"trial";"face_left";"face_top";"face_right";"face_combo";"cue_dir";"target_id";"target_pos";"cue_num";"isi";"correct_response";"congruency";"rt"
"mGCP-III";"1";"2018-01-11_09:08";"1";"1";"26";"37";"61";"4";"cue_left";"target_E";"target_right";"cue_3";"200ms";NA;"incongruent";NA
"mGCP-III";"1";"2018-01-11_09:08";"1";"2";"61";"37";"26";"2";"cue_right";"target_E";"target_right";"cue_3";"500ms";"correct";"congruent";450
"mGCP-III";"1";"2018-01-11_09:08";"1";"3";"26";"37";"61";"4";"cue_right";"target_E";"target_left";"cue_3";"500ms";"incorrect";"incongruent";464
"mGCP-III";"1";"2018-01-11_09:08";"1";"4";"61";"37";"26";"2";"cue_left";"target_F";"target_left";"cue_3";"500ms";"correct";"congruent";714
"mGCP-III";"1";"2018-01-11_09:08";"1";"5";"37";"26";"61";"6";"cue_left";"target_F";"target_right";"cue_3";"200ms";"correct";"incongruent";682
"mGCP-III";"1";"2018-01-11_09:08";"1";"6";"37";"26";"61";"6";"cue_right";"target_F";"target_left";"cue_3";"200ms";"correct";"incongruent";646
"mGCP-III";"1";"2018-01-11_09:08";"1";"7";"26";"37";"61";"4";"cue_right";"target_F";"target_left";"cue_3";"500ms";"correct";"incongruent";536
"mGCP-III";"1";"2018-01-11_09:08";"1";"8";"61";"26";"37";"1";"cue_left";"target_E";"target_left";"cue_3";"500ms";"correct";"congruent";646
"mGCP-III";"1";"2018-01-11_09:08";"1";"9";"61";"37";"26";"2";"cue_left";"target_F";"target_right";"cue_3";"500ms";"correct";"incongruent";527
"mGCP-III";"1";"2018-01-11_09:08";"1";"10";"26";"37";"61";"4";"cue_right";"target_F";"target_right";"cue_3";"500ms";"correct";"congruent";729
"mGCP-III";"1";"2018-01-11_09:08";"1";"11";"26";"61";"37";"3";"cue_right";"target_F";"target_left";"cue_3";"500ms";"correct";"incongruent";462
"mGCP-III";"1";"2018-01-11_09:08";"1";"12";"26";"61";"37";"3";"cue_left";"target_F";"target_right";"cue_3";"200ms";"correct";"incongruent";701
"mGCP-III";"1";"2018-01-11_09:08";"1";"13";"61";"26";"37";"1";"cue_left";"target_E";"target_right";"cue_3";"200ms";"correct";"incongruent";511
"mGCP-III";"1";"2018-01-11_09:08";"1";"14";"61";"26";"37";"1";"cue_left";"target_E";"target_left";"cue_3";"200ms";"correct";"congruent";688
"mGCP-III";"1";"2018-01-11_09:08";"1";"15";"26";"61";"37";"3";"cue_left";"target_E";"target_left";"cue_3";"500ms";"correct";"congruent";543
"mGCP-III";"1";"2018-01-11_09:08";"1";"16";"26";"37";"61";"4";"cue_right";"target_F";"target_left";"cue_3";"200ms";"correct";"incongruent";758
"mGCP-III";"1";"2018-01-11_09:08";"1";"17";"37";"26";"61";"6";"cue_right";"target_E";"target_right";"cue_3";"500ms";"correct";"congruent";522
"mGCP-III";"1";"2018-01-11_09:08";"1";"18";"61";"26";"37";"1";"cue_right";"target_F";"target_left";"cue_3";"500ms";"correct";"incongruent";447
"mGCP-III";"1";"2018-01-11_09:08";"1";"19";"61";"26";"37";"1";"cue_right";"target_E";"target_left";"cue_3";"200ms";"incorrect";"incongruent";519
"mGCP-III";"1";"2018-01-11_09:08";"1";"20";"61";"37";"26";"2";"cue_right";"target_E";"target_left";"cue_3";"200ms";"correct";"incongruent";564
"mGCP-III";"1";"2018-01-11_09:09";"1";"21";"26";"37";"61";"4";"cue_left";"target_F";"target_right";"cue_3";"500ms";"correct";"incongruent";493
"mGCP-III";"1";"2018-01-11_09:09";"1";"22";"37";"26";"61";"6";"cue_left";"target_F";"target_left";"cue_3";"500ms";"correct";"congruent";447
"mGCP-III";"1";"2018-01-11_09:09";"1";"23";"26";"61";"37";"3";"cue_right";"target_F";"target_left";"cue_3";"200ms";"correct";"incongruent";528
"mGCP-III";"1";"2018-01-11_09:09";"1";"24";"37";"61";"26";"5";"cue_left";"target_E";"target_left";"cue_3";"200ms";"correct";"congruent";545
"mGCP-III";"1";"2018-01-11_09:09";"1";"25";"61";"37";"26";"2";"cue_right";"target_E";"target_right";"cue_3";"200ms";"correct";"congruent";543
"mGCP-III";"1";"2018-01-11_09:09";"1";"26";"61";"37";"26";"2";"cue_left";"target_E";"target_left";"cue_3";"500ms";"correct";"congruent";453
"mGCP-III";"1";"2018-01-11_09:09";"1";"27";"26";"61";"37";"3";"cue_right";"target_E";"target_left";"cue_3";"200ms";"correct";"incongruent";631
"mGCP-III";"1";"2018-01-11_09:09";"1";"28";"61";"37";"26";"2";"cue_left";"target_F";"target_left";"cue_3";"200ms";"correct";"congruent";473
"mGCP-III";"1";"2018-01-11_09:09";"1";"29";"61";"26";"37";"1";"cue_right";"target_E";"target_right";"cue_3";"500ms";"correct";"congruent";386
"mGCP-III";"1";"2018-01-11_09:09";"1";"30";"26";"61";"37";"3";"cue_left";"target_E";"target_right";"cue_3";"500ms";"correct";"incongruent";599
"mGCP-III";"1";"2018-01-11_09:09";"1";"31";"26";"37";"61";"4";"cue_left";"target_F";"target_left";"cue_3";"500ms";"correct";"congruent";453
"mGCP-III";"1";"2018-01-11_09:09";"1";"32";"26";"61";"37";"3";"cue_right";"target_F";"target_right";"cue_3";"500ms";"correct";"congruent";464
"mGCP-III";"1";"2018-01-11_09:09";"1";"33";"37";"61";"26";"5";"cue_left";"target_F";"target_left";"cue_3";"200ms";"correct";"congruent";525
"mGCP-III";"1";"2018-01-11_09:09";"1";"34";"37";"61";"26";"5";"cue_right";"target_F";"target_right";"cue_3";"200ms";"correct";"congruent";595
"mGCP-III";"1";"2018-01-11_09:09";"1";"35";"37";"26";"61";"6";"cue_left";"target_E";"target_right";"cue_3";"500ms";"correct";"incongruent";409
"mGCP-III";"1";"2018-01-11_09:09";"1";"36";"26";"61";"37";"3";"cue_right";"target_E";"target_right";"cue_3";"500ms";"correct";"congruent";368
"mGCP-III";"1";"2018-01-11_09:09";"1";"37";"37";"26";"61";"6";"cue_right";"target_E";"target_left";"cue_3";"200ms";"incorrect";"incongruent";421
"mGCP-III";"1";"2018-01-11_09:09";"1";"38";"61";"37";"26";"2";"cue_right";"target_F";"target_left";"cue_3";"200ms";"correct";"incongruent";511
"mGCP-III";"1";"2018-01-11_09:09";"1";"39";"37";"61";"26";"5";"cue_left";"target_F";"target_right";"cue_3";"200ms";"correct";"incongruent";538
"mGCP-III";"1";"2018-01-11_09:09";"1";"40";"37";"61";"26";"5";"cue_left";"target_F";"target_right";"cue_3";"500ms";"correct";"incongruent";545
"mGCP-III";"1";"2018-01-11_09:09";"1";"41";"37";"26";"61";"6";"cue_right";"target_E";"target_left";"cue_3";"500ms";"correct";"incongruent";626
"mGCP-III";"1";"2018-01-11_09:09";"1";"42";"26";"61";"37";"3";"cue_left";"target_F";"target_left";"cue_3";"500ms";"correct";"congruent";637
"mGCP-III";"1";"2018-01-11_09:09";"1";"43";"61";"37";"26";"2";"cue_right";"target_F";"target_right";"cue_3";"500ms";"correct";"congruent";479
"mGCP-III";"1";"2018-01-11_09:09";"1";"44";"26";"37";"61";"4";"cue_left";"target_F";"target_left";"cue_3";"200ms";"correct";"congruent";485
"mGCP-III";"1";"2018-01-11_09:09";"1";"45";"37";"61";"26";"5";"cue_right";"target_F";"target_left";"cue_3";"200ms";"correct";"incongruent";657
"mGCP-III";"1";"2018-01-11_09:09";"1";"46";"37";"26";"61";"6";"cue_right";"target_E";"target_right";"cue_3";"200ms";"correct";"congruent";401
"mGCP-III";"1";"2018-01-11_09:09";"1";"47";"61";"37";"26";"2";"cue_left";"target_F";"target_right";"cue_3";"200ms";"correct";"incongruent";543
"mGCP-III";"1";"2018-01-11_09:09";"1";"48";"61";"26";"37";"1";"cue_right";"target_F";"target_right";"cue_3";"500ms";"correct";"congruent";404
"mGCP-III";"1";"2018-01-11_09:09";"1";"49";"37";"61";"26";"5";"cue_right";"target_E";"target_left";"cue_3";"500ms";"correct";"incongruent";492
"mGCP-III";"1";"2018-01-11_09:09";"1";"50";"61";"26";"37";"1";"cue_right";"target_F";"target_left";"cue_3";"200ms";"correct";"incongruent";493
"mGCP-III";"1";"2018-01-11_09:10";"1";"51";"61";"26";"37";"1";"cue_right";"target_F";"target_right";"cue_3";"200ms";"correct";"congruent";457
"mGCP-III";"1";"2018-01-11_09:10";"1";"52";"26";"37";"61";"4";"cue_right";"target_F";"target_right";"cue_3";"200ms";"correct";"congruent";447
"mGCP-III";"1";"2018-01-11_09:10";"1";"53";"26";"37";"61";"4";"cue_left";"target_E";"target_left";"cue_3";"500ms";"correct";"congruent";479
"mGCP-III";"1";"2018-01-11_09:10";"1";"54";"26";"37";"61";"4";"cue_left";"target_E";"target_left";"cue_3";"200ms";"correct";"congruent";550
"mGCP-III";"1";"2018-01-11_09:10";"1";"55";"37";"26";"61";"6";"cue_left";"target_E";"target_left";"cue_3";"500ms";"correct";"congruent";474
"mGCP-III";"1";"2018-01-11_09:10";"1";"56";"61";"37";"26";"2";"cue_right";"target_E";"target_left";"cue_3";"500ms";"correct";"incongruent";396
"mGCP-III";"1";"2018-01-11_09:10";"1";"57";"26";"37";"61";"4";"cue_right";"target_E";"target_right";"cue_3";"500ms";"incorrect";"congruent";458
"mGCP-III";"1";"2018-01-11_09:10";"1";"58";"37";"61";"26";"5";"cue_right";"target_F";"target_left";"cue_3";"500ms";"correct";"incongruent";583
"mGCP-III";"1";"2018-01-11_09:10";"1";"59";"37";"26";"61";"6";"cue_left";"target_F";"target_left";"cue_3";"200ms";"correct";"congruent";391
"mGCP-III";"1";"2018-01-11_09:10";"1";"60";"61";"37";"26";"2";"cue_left";"target_E";"target_right";"cue_3";"200ms";"correct";"incongruent";434
"mGCP-III";"1";"2018-01-11_09:10";"1";"61";"37";"61";"26";"5";"cue_left";"target_E";"target_left";"cue_3";"500ms";"correct";"congruent";466
"mGCP-III";"1";"2018-01-11_09:10";"1";"62";"37";"26";"61";"6";"cue_right";"target_F";"target_right";"cue_3";"500ms";"correct";"congruent";561
"mGCP-III";"1";"2018-01-11_09:10";"1";"63";"37";"61";"26";"5";"cue_right";"target_E";"target_right";"cue_3";"200ms";"correct";"congruent";543
"mGCP-III";"1";"2018-01-11_09:10";"1";"64";"37";"26";"61";"6";"cue_right";"target_F";"target_left";"cue_3";"500ms";"correct";"incongruent";569
"mGCP-III";"1";"2018-01-11_09:10";"1";"65";"26";"37";"61";"4";"cue_right";"target_E";"target_right";"cue_3";"200ms";"correct";"congruent";418
"mGCP-III";"1";"2018-01-11_09:10";"1";"66";"61";"26";"37";"1";"cue_left";"target_F";"target_right";"cue_3";"500ms";"correct";"incongruent";533
"mGCP-III";"1";"2018-01-11_09:10";"1";"67";"37";"61";"26";"5";"cue_right";"target_E";"target_right";"cue_3";"500ms";"correct";"congruent";423
"mGCP-III";"1";"2018-01-11_09:10";"1";"68";"26";"61";"37";"3";"cue_right";"target_E";"target_right";"cue_3";"200ms";"correct";"congruent";497
"mGCP-III";"1";"2018-01-11_09:10";"1";"69";"37";"26";"61";"6";"cue_right";"target_F";"target_right";"cue_3";"200ms";"correct";"congruent";618
"mGCP-III";"1";"2018-01-11_09:10";"1";"70";"61";"37";"26";"2";"cue_left";"target_E";"target_left";"cue_3";"200ms";"correct";"congruent";596
"mGCP-III";"1";"2018-01-11_09:10";"1";"71";"61";"26";"37";"1";"cue_left";"target_F";"target_left";"cue_3";"200ms";"incorrect";"congruent";546
"mGCP-III";"1";"2018-01-11_09:10";"1";"72";"26";"61";"37";"3";"cue_right";"target_E";"target_left";"cue_3";"500ms";"correct";"incongruent";551
"mGCP-III";"1";"2018-01-11_09:10";"1";"73";"37";"26";"61";"6";"cue_left";"target_F";"target_right";"cue_3";"500ms";"correct";"incongruent";483
"mGCP-III";"1";"2018-01-11_09:10";"1";"74";"61";"26";"37";"1";"cue_left";"target_E";"target_right";"cue_3";"500ms";"correct";"incongruent";618
"mGCP-III";"1";"2018-01-11_09:10";"1";"75";"26";"37";"61";"4";"cue_right";"target_E";"target_left";"cue_3";"200ms";"correct";"incongruent";537
"mGCP-III";"1";"2018-01-11_09:10";"1";"76";"26";"61";"37";"3";"cue_left";"target_F";"target_right";"cue_3";"500ms";"correct";"incongruent";406
"mGCP-III";"1";"2018-01-11_09:10";"1";"77";"61";"37";"26";"2";"cue_left";"target_E";"target_right";"cue_3";"500ms";"correct";"incongruent";485
"mGCP-III";"1";"2018-01-11_09:10";"1";"78";"26";"61";"37";"3";"cue_left";"target_F";"target_left";"cue_3";"200ms";"correct";"congruent";590
"mGCP-III";"1";"2018-01-11_09:10";"1";"79";"37";"26";"61";"6";"cue_left";"target_E";"target_left";"cue_3";"200ms";"correct";"congruent";607
"mGCP-III";"1";"2018-01-11_09:10";"1";"80";"26";"61";"37";"3";"cue_left";"target_E";"target_right";"cue_3";"200ms";"correct";"incongruent";436
"mGCP-III";"1";"2018-01-11_09:10";"1";"81";"37";"61";"26";"5";"cue_left";"target_E";"target_right";"cue_3";"500ms";"correct";"incongruent";399
"mGCP-III";"1";"2018-01-11_09:10";"1";"82";"61";"26";"37";"1";"cue_left";"target_F";"target_right";"cue_3";"200ms";"correct";"incongruent";465
"mGCP-III";"1";"2018-01-11_09:11";"1";"83";"37";"61";"26";"5";"cue_right";"target_F";"target_right";"cue_3";"500ms";"incorrect";"congruent";342
"mGCP-III";"1";"2018-01-11_09:11";"1";"84";"61";"26";"37";"1";"cue_right";"target_E";"target_left";"cue_3";"500ms";"correct";"incongruent";483
"mGCP-III";"1";"2018-01-11_09:11";"1";"85";"37";"61";"26";"5";"cue_right";"target_E";"target_left";"cue_3";"200ms";"correct";"incongruent";509
"mGCP-III";"1";"2018-01-11_09:11";"1";"86";"26";"61";"37";"3";"cue_left";"target_E";"target_left";"cue_3";"200ms";"correct";"congruent";485
"mGCP-III";"1";"2018-01-11_09:11";"1";"87";"26";"37";"61";"4";"cue_left";"target_E";"target_right";"cue_3";"500ms";"correct";"incongruent";405
"mGCP-III";"1";"2018-01-11_09:11";"1";"88";"37";"26";"61";"6";"cue_left";"target_E";"target_right";"cue_3";"200ms";"correct";"incongruent";329
"mGCP-III";"1";"2018-01-11_09:11";"1";"89";"61";"37";"26";"2";"cue_right";"target_F";"target_left";"cue_3";"500ms";"correct";"incongruent";467
"mGCP-III";"1";"2018-01-11_09:11";"1";"90";"61";"26";"37";"1";"cue_right";"target_E";"target_right";"cue_3";"200ms";"correct";"congruent";509
"mGCP-III";"1";"2018-01-11_09:11";"1";"91";"37";"61";"26";"5";"cue_left";"target_E";"target_right";"cue_3";"200ms";"correct";"incongruent";409
"mGCP-III";"1";"2018-01-11_09:11";"1";"92";"37";"61";"26";"5";"cue_left";"target_F";"target_left";"cue_3";"500ms";"correct";"congruent";491
"mGCP-III";"1";"2018-01-11_09:11";"1";"93";"26";"61";"37";"3";"cue_right";"target_F";"target_right";"cue_3";"200ms";"incorrect";"congruent";433
"mGCP-III";"1";"2018-01-11_09:11";"1";"94";"61";"37";"26";"2";"cue_right";"target_F";"target_right";"cue_3";"200ms";"incorrect";"congruent";445
"mGCP-III";"1";"2018-01-11_09:11";"1";"95";"61";"26";"37";"1";"cue_left";"target_F";"target_left";"cue_3";"500ms";"incorrect";"congruent";539
"mGCP-III";"1";"2018-01-11_09:11";"1";"96";"26";"37";"61";"4";"cue_left";"target_F";"target_right";"cue_3";"200ms";"correct";"incongruent";456
"mGCP-III";"1";"2018-01-11_09:11";"2";"97";NA;"26";NA;NA;"cue_right";"target_F";"target_left";"cue_1";"500ms";"correct";"incongruent";601
"mGCP-III";"1";"2018-01-11_09:11";"2";"98";NA;"26";NA;NA;"cue_left";"target_F";"target_right";"cue_1";"500ms";"correct";"incongruent";604
"mGCP-III";"1";"2018-01-11_09:11";"2";NA;NA;"26";NA;NA;"cue_right";"target_E";"target_right";"cue_1";"500ms";"correct";"congruent";515
"mGCP-III";"1";"2018-01-11_09:11";"2";"100";NA;"37";NA;NA;"cue_left";"target_F";"target_right";"cue_1";"500ms";"correct";"incongruent";560
"mGCP-III";"1";"2018-01-11_09:11";"2";"101";NA;"26";NA;NA;"cue_left";"target_E";"target_left";"cue_1";"200ms";"correct";"congruent";727
"mGCP-III";"1";"2018-01-11_09:11";"2";"102";NA;"61";NA;NA;"cue_left";"target_F";"target_right";"cue_1";"500ms";"correct";"incongruent";565
"mGCP-III";"1";"2018-01-11_09:11";"2";"103";NA;"37";NA;NA;"cue_left";"target_F";"target_right";"cue_1";"500ms";"correct";"incongruent";490
"mGCP-III";"1";"2018-01-11_09:12";"2";"104";NA;"26";NA;NA;"cue_right";"target_E";"target_right";"cue_1";"500ms";"correct";"congruent";554
"mGCP-III";"1";"2018-01-11_09:12";"2";"105";NA;"61";NA;NA;"cue_right";"target_E";"target_right";"cue_1";"500ms";"correct";"congruent";496
"mGCP-III";"1";"2018-01-11_09:12";"2";"106";NA;"61";NA;NA;"cue_left";"target_E";"target_left";"cue_1";"500ms";"incorrect";"congruent";497
"mGCP-III";"1";"2018-01-11_09:12";"2";"107";NA;"37";NA;NA;"cue_left";"target_F";"target_left";"cue_1";"200ms";"correct";"congruent";648
"mGCP-III";"1";"2018-01-11_09:12";"2";"108";NA;"26";NA;NA;"cue_left";"target_E";"target_right";"cue_1";"200ms";"correct";"incongruent";675
"mGCP-III";"1";"2018-01-11_09:12";"2";"109";NA;"61";NA;NA;"cue_right";"target_F";"target_left";"cue_1";"200ms";"correct";"incongruent";556
"mGCP-III";"1";"2018-01-11_09:12";"2";"110";NA;"26";NA;NA;"cue_left";"target_F";"target_right";"cue_1";"200ms";"correct";"incongruent";669
"mGCP-III";"1";"2018-01-11_09:12";"2";"111";NA;"37";NA;NA;"cue_right";"target_E";"target_right";"cue_1";"500ms";"correct";"congruent";447
"mGCP-III";"1";"2018-01-11_09:12";"2";"112";NA;"26";NA;NA;"cue_left";"target_F";"target_left";"cue_1";"500ms";"correct";"congruent";412
"mGCP-III";"1";"2018-01-11_09:12";"2";"113";NA;"26";NA;NA;"cue_left";"target_E";"target_left";"cue_1";"200ms";"incorrect";"congruent";533
"mGCP-III";"1";"2018-01-11_09:12";"2";"114";NA;"61";NA;NA;"cue_right";"target_E";"target_left";"cue_1";"500ms";"correct";"incongruent";592
"mGCP-III";"1";"2018-01-11_09:12";"2";"115";NA;"61";NA;NA;"cue_right";"target_F";"target_left";"cue_1";"200ms";"correct";"incongruent";542
"mGCP-III";"1";"2018-01-11_09:12";"2";"116";NA;"26";NA;NA;"cue_left";"target_F";"target_left";"cue_1";"500ms";"correct";"congruent";596
"mGCP-III";"1";"2018-01-11_09:12";"2";"117";NA;"37";NA;NA;"cue_right";"target_F";"target_right";"cue_1";"200ms";"correct";"congruent";750
"mGCP-III";"1";"2018-01-11_09:12";"2";"118";NA;"61";NA;NA;"cue_left";"target_F";"target_right";"cue_1";"500ms";"correct";"incongruent";548
"mGCP-III";"1";"2018-01-11_09:12";"2";"119";NA;"37";NA;NA;"cue_left";"target_E";"target_right";"cue_1";"200ms";"correct";"incongruent";667
"mGCP-III";"1";"2018-01-11_09:12";"2";"120";NA;"61";NA;NA;"cue_right";"target_E";"target_left";"cue_1";"500ms";"correct";"incongruent";526
"mGCP-III";"1";"2018-01-11_09:12";"2";"121";NA;"37";NA;NA;"cue_right";"target_F";"target_right";"cue_1";"500ms";"correct";"congruent";563
"mGCP-III";"1";"2018-01-11_09:12";"2";"122";NA;"26";NA;NA;"cue_right";"target_E";"target_left";"cue_1";"200ms";"correct";"incongruent";581
"mGCP-III";"1";"2018-01-11_09:12";"2";"123";NA;"37";NA;NA;"cue_left";"target_F";"target_left";"cue_1";"500ms";"correct";"congruent";418
"mGCP-III";"1";"2018-01-11_09:12";"2";"124";NA;"61";NA;NA;"cue_right";"target_F";"target_right";"cue_1";"500ms";"correct";"congruent";610
"mGCP-III";"1";"2018-01-11_09:12";"2";"125";NA;"61";NA;NA;"cue_right";"target_E";"target_left";"cue_1";"200ms";"correct";"incongruent";600
"mGCP-III";"1";"2018-01-11_09:12";"2";"126";NA;"61";NA;NA;"cue_left";"target_E";"target_right";"cue_1";"200ms";"correct";"incongruent";735
"mGCP-III";"1";"2018-01-11_09:12";"2";"127";NA;"61";NA;NA;"cue_right";"target_F";"target_left";"cue_1";"500ms";"correct";"incongruent";495
"mGCP-III";"1";"2018-01-11_09:12";"2";"128";NA;"26";NA;NA;"cue_right";"target_E";"target_left";"cue_1";"500ms";"correct";"incongruent";593
"mGCP-III";"1";"2018-01-11_09:12";"2";"129";NA;"37";NA;NA;"cue_left";"target_E";"target_left";"cue_1";"200ms";"correct";"congruent";741
"mGCP-III";"1";"2018-01-11_09:12";"2";"130";NA;"26";NA;NA;"cue_left";"target_E";"target_left";"cue_1";"500ms";"correct";"congruent";499
"mGCP-III";"1";"2018-01-11_09:12";"2";"131";NA;"37";NA;NA;"cue_left";"target_E";"target_left";"cue_1";"500ms";"correct";"congruent";437
"mGCP-III";"1";"2018-01-11_09:12";"2";"132";NA;"61";NA;NA;"cue_left";"target_F";"target_left";"cue_1";"500ms";"correct";"congruent";487
"mGCP-III";"1";"2018-01-11_09:12";"2";"133";NA;"26";NA;NA;"cue_right";"target_E";"target_left";"cue_1";"200ms";"correct";"incongruent";612
"mGCP-III";"1";"2018-01-11_09:13";"2";"134";NA;"37";NA;NA;"cue_right";"target_E";"target_right";"cue_1";"200ms";"correct";"congruent";532
"mGCP-III";"1";"2018-01-11_09:13";"2";"135";NA;"26";NA;NA;"cue_left";"target_F";"target_left";"cue_1";"200ms";"correct";"congruent";496
"mGCP-III";"1";"2018-01-11_09:13";"2";"136";NA;"37";NA;NA;"cue_right";"target_F";"target_left";"cue_1";"500ms";"correct";"incongruent";512
"mGCP-III";"1";"2018-01-11_09:13";"2";"137";NA;"26";NA;NA;"cue_right";"target_F";"target_right";"cue_1";"500ms";NA;"congruent";NA
"mGCP-III";"1";"2018-01-11_09:13";"2";"138";NA;"61";NA;NA;"cue_left";"target_F";"target_left";"cue_1";"200ms";"correct";"congruent";529
"mGCP-III";"1";"2018-01-11_09:13";"2";"139";NA;"61";NA;NA;"cue_right";"target_E";"target_right";"cue_1";"200ms";"correct";"congruent";527
"mGCP-III";"1";"2018-01-11_09:13";"2";"140";NA;"26";NA;NA;"cue_right";"target_F";"target_right";"cue_1";"200ms";"correct";"congruent";521
"mGCP-III";"1";"2018-01-11_09:13";"2";"141";NA;"26";NA;NA;"cue_left";"target_F";"target_right";"cue_1";"200ms";"correct";"incongruent";590
"mGCP-III";"1";"2018-01-11_09:13";"2";"142";NA;"61";NA;NA;"cue_left";"target_F";"target_left";"cue_1";"200ms";"correct";"congruent";494
"mGCP-III";"1";"2018-01-11_09:13";"2";"143";NA;"61";NA;NA;"cue_left";"target_E";"target_right";"cue_1";"500ms";"incorrect";"incongruent";347
"mGCP-III";"1";"2018-01-11_09:13";"2";"144";NA;"26";NA;NA;"cue_right";"target_F";"target_left";"cue_1";"500ms";"correct";"incongruent";480
"mGCP-III";"1";"2018-01-11_09:13";"2";"145";NA;"26";NA;NA;"cue_right";"target_F";"target_left";"cue_1";"200ms";"correct";"incongruent";569
"mGCP-III";"1";"2018-01-11_09:13";"2";"146";NA;"61";NA;NA;"cue_left";"target_E";"target_right";"cue_1";"500ms";"correct";"incongruent";430
"mGCP-III";"1";"2018-01-11_09:13";"2";"147";NA;"61";NA;NA;"cue_left";"target_E";"target_left";"cue_1";"500ms";"correct";"congruent";591
"mGCP-III";"1";"2018-01-11_09:13";"2";"148";NA;"61";NA;NA;"cue_left";"target_E";"target_left";"cue_1";"200ms";NA;"congruent";NA
"mGCP-III";"1";"2018-01-11_09:13";"2";"149";NA;"26";NA;NA;"cue_left";"target_E";"target_left";"cue_1";"500ms";"correct";"congruent";493
"mGCP-III";"1";"2018-01-11_09:13";"2";"150";NA;"26";NA;NA;"cue_right";"target_F";"target_right";"cue_1";"500ms";"correct";"congruent";489
"mGCP-III";"1";"2018-01-11_09:13";"2";"151";NA;"61";NA;NA;"cue_left";"target_E";"target_right";"cue_1";"200ms";"correct";"incongruent";526
"mGCP-III";"1";"2018-01-11_09:13";"2";"152";NA;"26";NA;NA;"cue_left";"target_E";"target_right";"cue_1";"500ms";"correct";"incongruent";570
"mGCP-III";"1";"2018-01-11_09:13";"2";"153";NA;"61";NA;NA;"cue_right";"target_F";"target_right";"cue_1";"200ms";"incorrect";"congruent";450
"mGCP-III";"1";"2018-01-11_09:13";"2";"154";NA;"37";NA;NA;"cue_right";"target_E";"target_left";"cue_1";"200ms";"correct";"incongruent";588
"mGCP-III";"1";"2018-01-11_09:13";"2";"155";NA;"37";NA;NA;"cue_right";"target_F";"target_left";"cue_1";"500ms";"correct";"incongruent";526
"mGCP-III";"1";"2018-01-11_09:13";"2";"156";NA;"37";NA;NA;"cue_right";"target_E";"target_right";"cue_1";"200ms";"correct";"congruent";459
"mGCP-III";"1";"2018-01-11_09:13";"2";"157";NA;"26";NA;NA;"cue_left";"target_E";"target_right";"cue_1";"500ms";"correct";"incongruent";497
"mGCP-III";"1";"2018-01-11_09:13";"2";"158";NA;"37";NA;NA;"cue_right";"target_F";"target_left";"cue_1";"200ms";"correct";"incongruent";517
"mGCP-III";"1";"2018-01-11_09:13";"2";"159";NA;"26";NA;NA;"cue_right";"target_E";"target_left";"cue_1";"500ms";"correct";"incongruent";659
"mGCP-III";"1";"2018-01-11_09:13";"2";"160";NA;"26";NA;NA;"cue_left";"target_F";"target_right";"cue_1";"500ms";"correct";"incongruent";534
"mGCP-III";"1";"2018-01-11_09:13";"2";"161";NA;"26";NA;NA;"cue_left";"target_E";"target_right";"cue_1";"200ms";"correct";"incongruent";509
"mGCP-III";"1";"2018-01-11_09:13";"2";"162";NA;"61";NA;NA;"cue_left";"target_E";"target_left";"cue_1";"200ms";"correct";"congruent";572
"mGCP-III";"1";"2018-01-11_09:13";"2";"163";NA;"61";NA;NA;"cue_right";"target_F";"target_right";"cue_1";"500ms";"correct";"congruent";486
"mGCP-III";"1";"2018-01-11_09:14";"2";"164";NA;"37";NA;NA;"cue_left";"target_F";"target_left";"cue_1";"200ms";"correct";"congruent";575
"mGCP-III";"1";"2018-01-11_09:14";"2";"165";NA;"37";NA;NA;"cue_left";"target_E";"target_right";"cue_1";"200ms";"correct";"incongruent";420
"mGCP-III";"1";"2018-01-11_09:14";"2";"166";NA;"61";NA;NA;"cue_right";"target_E";"target_left";"cue_1";"200ms";"correct";"incongruent";570
"mGCP-III";"1";"2018-01-11_09:14";"2";"167";NA;"37";NA;NA;"cue_left";"target_E";"target_left";"cue_1";"500ms";"incorrect";"congruent";477
"mGCP-III";"1";"2018-01-11_09:14";"2";"168";NA;"37";NA;NA;"cue_right";"target_E";"target_left";"cue_1";"500ms";"correct";"incongruent";614
"mGCP-III";"1";"2018-01-11_09:14";"2";"169";NA;"37";NA;NA;"cue_right";"target_E";"target_left";"cue_1";"200ms";"correct";"incongruent";554
"mGCP-III";"1";"2018-01-11_09:14";"2";"170";NA;"26";NA;NA;"cue_right";"target_F";"target_left";"cue_1";"200ms";"correct";"incongruent";652
"mGCP-III";"1";"2018-01-11_09:14";"2";"171";NA;"61";NA;NA;"cue_right";"target_F";"target_left";"cue_1";"500ms";"correct";"incongruent";600
"mGCP-III";"1";"2018-01-11_09:14";"2";"172";NA;"26";NA;NA;"cue_right";"target_F";"target_right";"cue_1";"200ms";"correct";"congruent";618
"mGCP-III";"1";"2018-01-11_09:14";"2";"173";NA;"26";NA;NA;"cue_right";"target_E";"target_right";"cue_1";"200ms";"correct";"congruent";579
"mGCP-III";"1";"2018-01-11_09:14";"2";"174";NA;"61";NA;NA;"cue_right";"target_E";"target_right";"cue_1";"500ms";"correct";"congruent";456
"mGCP-III";"1";"2018-01-11_09:14";"2";"175";NA;"61";NA;NA;"cue_left";"target_F";"target_right";"cue_1";"200ms";"incorrect";"incongruent";587
"mGCP-III";"1";"2018-01-11_09:14";"2";"176";NA;"37";NA;NA;"cue_right";"target_F";"target_left";"cue_1";"200ms";"incorrect";"incongruent";553
"mGCP-III";"1";"2018-01-11_09:14";"2";"177";NA;"37";NA;NA;"cue_left";"target_F";"target_left";"cue_1";"500ms";"correct";"congruent";645
"mGCP-III";"1";"2018-01-11_09:14";"2";"178";NA;"37";NA;NA;"cue_left";"target_E";"target_right";"cue_1";"500ms";"correct";"incongruent";487
"mGCP-III";"1";"2018-01-11_09:14";"2";"179";NA;"37";NA;NA;"cue_left";"target_E";"target_left";"cue_1";"200ms";"correct";"congruent";593
"mGCP-III";"1";"2018-01-11_09:14";"2";"180";NA;"37";NA;NA;"cue_left";"target_E";"target_right";"cue_1";"500ms";"correct";"incongruent";499
"mGCP-III";"1";"2018-01-11_09:14";"2";"181";NA;"37";NA;NA;"cue_right";"target_F";"target_right";"cue_1";"500ms";"correct";"congruent";505
"mGCP-III";"1";"2018-01-11_09:14";"2";"182";NA;"61";NA;NA;"cue_left";"target_F";"target_left";"cue_1";"500ms";"correct";"congruent";646
"mGCP-III";"1";"2018-01-11_09:14";"2";"183";NA;"26";NA;NA;"cue_left";"target_F";"target_left";"cue_1";"200ms";"correct";"congruent";737
"mGCP-III";"1";"2018-01-11_09:14";"2";"184";NA;"37";NA;NA;"cue_left";"target_F";"target_right";"cue_1";"200ms";"correct";"incongruent";683
"mGCP-III";"1";"2018-01-11_09:14";"2";"185";NA;"61";NA;NA;"cue_right";"target_E";"target_right";"cue_1";"200ms";"correct";"congruent";553
"mGCP-III";"1";"2018-01-11_09:14";"2";"186";NA;"37";NA;NA;"cue_right";"target_E";"target_left";"cue_1";"500ms";"correct";"incongruent";629
"mGCP-III";"1";"2018-01-11_09:14";"2";"187";NA;"26";NA;NA;"cue_right";"target_E";"target_right";"cue_1";"200ms";NA;"congruent";NA
"mGCP-III";"1";"2018-01-11_09:14";"2";"188";NA;"37";NA;NA;"cue_left";"target_F";"target_right";"cue_1";"200ms";"correct";"incongruent";512
"mGCP-III";"1";"2018-01-11_09:14";"2";"189";NA;"37";NA;NA;"cue_right";"target_F";"target_right";"cue_1";"200ms";"correct";"congruent";696
"mGCP-III";"1";"2018-01-11_09:14";"2";"190";NA;"61";NA;NA;"cue_right";"target_F";"target_right";"cue_1";"200ms";"correct";"congruent";539
"mGCP-III";"1";"2018-01-11_09:14";"2";"191";NA;"61";NA;NA;"cue_left";"target_F";"target_right";"cue_1";"200ms";"correct";"incongruent";464
"mGCP-III";"1";"2018-01-11_09:14";"2";"192";NA;"37";NA;NA;"cue_right";"target_E";"target_right";"cue_1";"500ms";"correct";"congruent";490
"mGCP-III";"1";"2018-01-11_09:15";"3";"193";"37";"26";"61";"6";"cue_right";"target_F";"target_left";"cue_3";"200ms";"correct";"incongruent";782
"mGCP-III";"1";"2018-01-11_09:15";"3";"194";"26";"61";"37";"3";"cue_right";"target_F";"target_right";"cue_3";"200ms";"correct";"congruent";606
"mGCP-III";"1";"2018-01-11_09:15";"3";"195";"61";"26";"37";"1";"cue_left";"target_E";"target_left";"cue_3";"500ms";"incorrect";"congruent";516
"mGCP-III";"1";"2018-01-11_09:15";"3";"196";"37";"26";"61";"6";"cue_right";"target_E";"target_right";"cue_3";"500ms";"correct";"congruent";661
"mGCP-III";"1";"2018-01-11_09:15";"3";"197";"26";"37";"61";"4";"cue_left";"target_F";"target_left";"cue_3";"200ms";"correct";"congruent";545
"mGCP-III";"1";"2018-01-11_09:15";"3";"198";"37";"26";"61";"6";"cue_left";"target_E";"target_left";"cue_3";"200ms";"correct";"congruent";585
"mGCP-III";"1";"2018-01-11_09:15";"3";"199";"37";"61";"26";"5";"cue_left";"target_F";"target_right";"cue_3";"200ms";"correct";"incongruent";459
"mGCP-III";"1";"2018-01-11_09:15";"3";"200";"37";"26";"61";"6";"cue_left";"target_E";"target_right";"cue_3";"200ms";"correct";"incongruent";674
"mGCP-III";"1";"2018-01-11_09:15";"3";"201";"37";"26";"61";"6";"cue_right";"target_E";"target_left";"cue_3";"200ms";"correct";"incongruent";662
"mGCP-III";"1";"2018-01-11_09:15";"3";"202";"26";"61";"37";"3";"cue_left";"target_E";"target_left";"cue_3";"500ms";"correct";"congruent";552
"mGCP-III";"1";"2018-01-11_09:15";"3";"203";"26";"61";"37";"3";"cue_right";"target_F";"target_left";"cue_3";"200ms";"correct";"incongruent";559
"mGCP-III";"1";"2018-01-11_09:15";"3";"204";"37";"26";"61";"6";"cue_left";"target_E";"target_right";"cue_3";"500ms";"correct";"incongruent";345
"mGCP-III";"1";"2018-01-11_09:15";"3";"205";"37";"26";"61";"6";"cue_left";"target_F";"target_left";"cue_3";"200ms";"correct";"congruent";472
"mGCP-III";"1";"2018-01-11_09:15";"3";"206";"26";"37";"61";"4";"cue_left";"target_F";"target_left";"cue_3";"500ms";"incorrect";"congruent";435
"mGCP-III";"1";"2018-01-11_09:15";"3";"207";"37";"26";"61";"6";"cue_right";"target_F";"target_left";"cue_3";"500ms";"correct";"incongruent";503
"mGCP-III";"1";"2018-01-11_09:15";"3";"208";"26";"61";"37";"3";"cue_right";"target_E";"target_right";"cue_3";"500ms";"correct";"congruent";455
"mGCP-III";"1";"2018-01-11_09:15";"3";"209";"37";"26";"61";"6";"cue_left";"target_F";"target_right";"cue_3";"200ms";"correct";"incongruent";609
"mGCP-III";"1";"2018-01-11_09:15";"3";"210";"26";"61";"37";"3";"cue_left";"target_E";"target_right";"cue_3";"200ms";"correct";"incongruent";600
"mGCP-III";"1";"2018-01-11_09:15";"3";"211";"26";"37";"61";"4";"cue_left";"target_E";"target_left";"cue_3";"500ms";"incorrect";"congruent";330
"mGCP-III";"1";"2018-01-11_09:15";"3";"212";"26";"61";"37";"3";"cue_left";"target_F";"target_right";"cue_3";"200ms";"correct";"incongruent";547
"mGCP-III";"1";"2018-01-11_09:15";"3";"213";"26";"37";"61";"4";"cue_right";"target_E";"target_right";"cue_3";"500ms";"correct";"congruent";554
"mGCP-III";"1";"2018-01-11_09:15";"3";"214";"37";"61";"26";"5";"cue_left";"target_E";"target_right";"cue_3";"500ms";"correct";"incongruent";547
"mGCP-III";"1";"2018-01-11_09:15";"3";"215";"61";"37";"26";"2";"cue_right";"target_E";"target_left";"cue_3";"200ms";"correct";"incongruent";774
"mGCP-III";"1";"2018-01-11_09:15";"3";"216";"26";"61";"37";"3";"cue_right";"target_E";"target_right";"cue_3";"200ms";"correct";"congruent";551
"mGCP-III";"1";"2018-01-11_09:15";"3";"217";"37";"61";"26";"5";"cue_left";"target_F";"target_left";"cue_3";"200ms";"correct";"congruent";523
"mGCP-III";"1";"2018-01-11_09:15";"3";"218";"37";"61";"26";"5";"cue_right";"target_F";"target_left";"cue_3";"200ms";"incorrect";"incongruent";653
"mGCP-III";"1";"2018-01-11_09:15";"3";"219";"26";"37";"61";"4";"cue_right";"target_E";"target_left";"cue_3";"200ms";"correct";"incongruent";542
"mGCP-III";"1";"2018-01-11_09:15";"3";"220";"26";"61";"37";"3";"cue_right";"target_F";"target_right";"cue_3";"500ms";"correct";"congruent";487
"mGCP-III";"1";"2018-01-11_09:16";"3";"221";"26";"61";"37";"3";"cue_left";"target_E";"target_left";"cue_3";"200ms";"correct";"congruent";538
"mGCP-III";"1";"2018-01-11_09:16";"3";"222";"37";"61";"26";"5";"cue_left";"target_E";"target_left";"cue_3";"200ms";"correct";"congruent";587
"mGCP-III";"1";"2018-01-11_09:16";"3";"223";"37";"61";"26";"5";"cue_right";"target_E";"target_left";"cue_3";"200ms";"correct";"incongruent";483
"mGCP-III";"1";"2018-01-11_09:16";"3";"224";"61";"26";"37";"1";"cue_left";"target_F";"target_right";"cue_3";"500ms";"correct";"incongruent";332
"mGCP-III";"1";"2018-01-11_09:16";"3";"225";"61";"26";"37";"1";"cue_right";"target_E";"target_left";"cue_3";"200ms";"correct";"incongruent";472
"mGCP-III";"1";"2018-01-11_09:16";"3";"226";"37";"26";"61";"6";"cue_right";"target_E";"target_left";"cue_3";"500ms";"correct";"incongruent";447
"mGCP-III";"1";"2018-01-11_09:16";"3";"227";"61";"37";"26";"2";"cue_right";"target_E";"target_right";"cue_3";"200ms";"correct";"congruent";486
"mGCP-III";"1";"2018-01-11_09:16";"3";"228";"26";"37";"61";"4";"cue_right";"target_E";"target_left";"cue_3";"500ms";"correct";"incongruent";557
"mGCP-III";"1";"2018-01-11_09:16";"3";"229";"37";"61";"26";"5";"cue_right";"target_F";"target_right";"cue_3";"200ms";"correct";"congruent";525
"mGCP-III";"1";"2018-01-11_09:16";"3";"230";"26";"61";"37";"3";"cue_right";"target_E";"target_left";"cue_3";"500ms";"correct";"incongruent";541
"mGCP-III";"1";"2018-01-11_09:16";"3";"231";"26";"37";"61";"4";"cue_left";"target_F";"target_right";"cue_3";"200ms";"correct";"incongruent";465
"mGCP-III";"1";"2018-01-11_09:16";"3";"232";"37";"61";"26";"5";"cue_left";"target_E";"target_left";"cue_3";"500ms";"correct";"congruent";451
"mGCP-III";"1";"2018-01-11_09:16";"3";"233";"37";"61";"26";"5";"cue_right";"target_F";"target_left";"cue_3";"500ms";"correct";"incongruent";522
"mGCP-III";"1";"2018-01-11_09:16";"3";"234";"61";"26";"37";"1";"cue_right";"target_E";"target_right";"cue_3";"500ms";"correct";"congruent";396
"mGCP-III";"1";"2018-01-11_09:16";"3";"235";"37";"26";"61";"6";"cue_right";"target_F";"target_right";"cue_3";"500ms";"correct";"congruent";497
"mGCP-III";"1";"2018-01-11_09:16";"3";"236";"26";"37";"61";"4";"cue_right";"target_E";"target_right";"cue_3";"200ms";"correct";"congruent";500
"mGCP-III";"1";"2018-01-11_09:16";"3";"237";"61";"26";"37";"1";"cue_right";"target_E";"target_left";"cue_3";"500ms";"correct";"incongruent";498
"mGCP-III";"1";"2018-01-11_09:16";"3";"238";"37";"26";"61";"6";"cue_right";"target_F";"target_right";"cue_3";"200ms";"correct";"congruent";504
"mGCP-III";"1";"2018-01-11_09:16";"3";"239";"61";"26";"37";"1";"cue_left";"target_F";"target_left";"cue_3";"200ms";"correct";"congruent";796
"mGCP-III";"1";"2018-01-11_09:16";"3";"240";"26";"61";"37";"3";"cue_right";"target_E";"target_left";"cue_3";"200ms";"incorrect";"incongruent";583
"mGCP-III";"1";"2018-01-11_09:16";"3";"241";"61";"37";"26";"2";"cue_left";"target_F";"target_left";"cue_3";"500ms";"correct";"congruent";482
"mGCP-III";"1";"2018-01-11_09:16";"3";"242";"61";"26";"37";"1";"cue_right";"target_F";"target_left";"cue_3";"500ms";"correct";"incongruent";656
"mGCP-III";"1";"2018-01-11_09:16";"3";"243";"26";"37";"61";"4";"cue_left";"target_E";"target_right";"cue_3";"200ms";"correct";"incongruent";539
"mGCP-III";"1";"2018-01-11_09:16";"3";"244";"61";"37";"26";"2";"cue_left";"target_E";"target_left";"cue_3";"200ms";"correct";"congruent";612
"mGCP-III";"1";"2018-01-11_09:16";"3";"245";"61";"26";"37";"1";"cue_left";"target_E";"target_right";"cue_3";"500ms";"correct";"incongruent";492
"mGCP-III";"1";"2018-01-11_09:16";"3";"246";"61";"37";"26";"2";"cue_right";"target_F";"target_right";"cue_3";"500ms";"correct";"congruent";589
"mGCP-III";"1";"2018-01-11_09:16";"3";"247";"61";"37";"26";"2";"cue_right";"target_E";"target_right";"cue_3";"500ms";"correct";"congruent";449
"mGCP-III";"1";"2018-01-11_09:16";"3";"248";"37";"61";"26";"5";"cue_right";"target_E";"target_left";"cue_3";"500ms";"correct";"incongruent";575
"mGCP-III";"1";"2018-01-11_09:16";"3";"249";"61";"37";"26";"2";"cue_right";"target_F";"target_left";"cue_3";"500ms";"correct";"incongruent";540
"mGCP-III";"1";"2018-01-11_09:16";"3";"250";"37";"26";"61";"6";"cue_left";"target_F";"target_right";"cue_3";"500ms";"correct";"incongruent";585
"mGCP-III";"1";"2018-01-11_09:17";"3";"251";"61";"37";"26";"2";"cue_left";"target_F";"target_left";"cue_3";"200ms";"correct";"congruent";593
"mGCP-III";"1";"2018-01-11_09:17";"3";"252";"37";"26";"61";"6";"cue_right";"target_E";"target_right";"cue_3";"200ms";"correct";"congruent";435
"mGCP-III";"1";"2018-01-11_09:17";"3";"253";"61";"26";"37";"1";"cue_left";"target_E";"target_right";"cue_3";"200ms";"correct";"incongruent";415
"mGCP-III";"1";"2018-01-11_09:17";"3";"254";"26";"37";"61";"4";"cue_right";"target_F";"target_left";"cue_3";"500ms";"correct";"incongruent";390
"mGCP-III";"1";"2018-01-11_09:17";"3";"255";"61";"37";"26";"2";"cue_right";"target_F";"target_right";"cue_3";"200ms";"correct";"congruent";497
"mGCP-III";"1";"2018-01-11_09:17";"3";"256";"61";"37";"26";"2";"cue_right";"target_E";"target_left";"cue_3";"500ms";"correct";"incongruent";616
"mGCP-III";"1";"2018-01-11_09:17";"3";"257";"61";"26";"37";"1";"cue_right";"target_F";"target_left";"cue_3";"200ms";"correct";"incongruent";561
"mGCP-III";"1";"2018-01-11_09:17";"3";"258";"26";"37";"61";"4";"cue_left";"target_F";"target_right";"cue_3";"500ms";"incorrect";"incongruent";378
"mGCP-III";"1";"2018-01-11_09:17";"3";"259";"37";"61";"26";"5";"cue_left";"target_F";"target_left";"cue_3";"500ms";"correct";"congruent";548
"mGCP-III";"1";"2018-01-11_09:17";"3";"260";"26";"61";"37";"3";"cue_right";"target_F";"target_left";"cue_3";"500ms";"correct";"incongruent";438
"mGCP-III";"1";"2018-01-11_09:17";"3";"261";"37";"61";"26";"5";"cue_left";"target_E";"target_right";"cue_3";"200ms";"correct";"incongruent";487
"mGCP-III";"1";"2018-01-11_09:17";"3";"262";"61";"26";"37";"1";"cue_left";"target_F";"target_right";"cue_3";"200ms";"correct";"incongruent";582
"mGCP-III";"1";"2018-01-11_09:17";"3";"263";"26";"37";"61";"4";"cue_left";"target_E";"target_left";"cue_3";"200ms";"correct";"congruent";611
"mGCP-III";"1";"2018-01-11_09:17";"3";"264";"61";"26";"37";"1";"cue_right";"target_E";"target_right";"cue_3";"200ms";"correct";"congruent";626
"mGCP-III";"1";"2018-01-11_09:17";"3";"265";"26";"61";"37";"3";"cue_left";"target_E";"target_right";"cue_3";"500ms";"correct";"incongruent";507
"mGCP-III";"1";"2018-01-11_09:17";"3";"266";"61";"37";"26";"2";"cue_left";"target_E";"target_right";"cue_3";"500ms";"correct";"incongruent";434
"mGCP-III";"1";"2018-01-11_09:17";"3";"267";"26";"37";"61";"4";"cue_left";"target_E";"target_right";"cue_3";"500ms";"correct";"incongruent";475
"mGCP-III";"1";"2018-01-11_09:17";"3";"268";"37";"61";"26";"5";"cue_right";"target_E";"target_right";"cue_3";"200ms";"correct";"congruent";508
"mGCP-III";"1";"2018-01-11_09:17";"3";"269";"26";"61";"37";"3";"cue_left";"target_F";"target_left";"cue_3";"200ms";"correct";"congruent";702
"mGCP-III";"1";"2018-01-11_09:17";"3";"270";"26";"37";"61";"4";"cue_right";"target_F";"target_right";"cue_3";"200ms";"correct";"congruent";684
"mGCP-III";"1";"2018-01-11_09:17";"3";"271";"61";"37";"26";"2";"cue_left";"target_E";"target_right";"cue_3";"200ms";"incorrect";"incongruent";696
"mGCP-III";"1";"2018-01-11_09:17";"3";"272";"37";"61";"26";"5";"cue_right";"target_F";"target_right";"cue_3";"500ms";"correct";"congruent";496
"mGCP-III";"1";"2018-01-11_09:17";"3";"273";"26";"61";"37";"3";"cue_left";"target_F";"target_left";"cue_3";"500ms";"correct";"congruent";563
"mGCP-III";"1";"2018-01-11_09:17";"3";"274";"61";"26";"37";"1";"cue_left";"target_F";"target_left";"cue_3";"500ms";"correct";"congruent";518
"mGCP-III";"1";"2018-01-11_09:17";"3";"275";"26";"61";"37";"3";"cue_left";"target_F";"target_right";"cue_3";"500ms";"correct";"incongruent";395
"mGCP-III";"1";"2018-01-11_09:17";"3";"276";"26";"37";"61";"4";"cue_right";"target_F";"target_left";"cue_3";"200ms";"correct";"incongruent";643
"mGCP-III";"1";"2018-01-11_09:17";"3";"277";"61";"37";"26";"2";"cue_right";"target_F";"target_left";"cue_3";"200ms";"correct";"incongruent";536
"mGCP-III";"1";"2018-01-11_09:17";"3";"278";"61";"37";"26";"2";"cue_left";"target_F";"target_right";"cue_3";"200ms";"correct";"incongruent";559
"mGCP-III";"1";"2018-01-11_09:17";"3";"279";"61";"26";"37";"1";"cue_right";"target_F";"target_right";"cue_3";"200ms";"correct";"congruent";522
"mGCP-III";"1";"2018-01-11_09:17";"3";"280";"37";"61";"26";"5";"cue_right";"target_E";"target_right";"cue_3";"500ms";"correct";"congruent";639
"mGCP-III";"1";"2018-01-11_09:17";"3";"281";"61";"26";"37";"1";"cue_right";"target_F";"target_right";"cue_3";"500ms";"incorrect";"congruent";470
"mGCP-III";"1";"2018-01-11_09:18";"3";"282";"37";"61";"26";"5";"cue_left";"target_F";"target_right";"cue_3";"500ms";"correct";"incongruent";408
"mGCP-III";"1";"2018-01-11_09:18";"3";"283";"61";"37";"26";"2";"cue_left";"target_F";"target_right";"cue_3";"500ms";"correct";"incongruent";409
"mGCP-III";"1";"2018-01-11_09:18";"3";"284";"61";"37";"26";"2";"cue_left";"target_E";"target_left";"cue_3";"500ms";"correct";"congruent";556
"mGCP-III";"1";"2018-01-11_09:18";"3";"285";"61";"26";"37";"1";"cue_left";"target_E";"target_left";"cue_3";"200ms";"correct";"congruent";556
"mGCP-III";"1";"2018-01-11_09:18";"3";"286";"26";"37";"61";"4";"cue_right";"target_F";"target_right";"cue_3";"500ms";"correct";"congruent";424
"mGCP-III";"1";"2018-01-11_09:18";"3";"287";"37";"26";"61";"6";"cue_left";"target_F";"target_left";"cue_3";"500ms";"correct";"congruent";542
"mGCP-III";"1";"2018-01-11_09:18";"3";"288";"37";"26";"61";"6";"cue_left";"target_E";"target_left";"cue_3";"500ms";"correct";"congruent";528
"mGCP-III";"1";"2018-01-11_09:18";"4";"289";NA;"26";NA;NA;"cue_right";"target_F";"target_left";"cue_1";"500ms";"correct";"incongruent";494
"mGCP-III";"1";"2018-01-11_09:18";"4";"290";NA;"61";NA;NA;"cue_left";"target_F";"target_left";"cue_1";"500ms";"correct";"congruent";453
"mGCP-III";"1";"2018-01-11_09:18";"4";"291";NA;"37";NA;NA;"cue_right";"target_E";"target_right";"cue_1";"200ms";"correct";"congruent";537
"mGCP-III";"1";"2018-01-11_09:18";"4";"292";NA;"61";NA;NA;"cue_right";"target_E";"target_left";"cue_1";"200ms";"correct";"incongruent";627
"mGCP-III";"1";"2018-01-11_09:18";"4";"293";NA;"61";NA;NA;"cue_right";"target_F";"target_right";"cue_1";"500ms";"correct";"congruent";497
"mGCP-III";"1";"2018-01-11_09:18";"4";"294";NA;"26";NA;NA;"cue_left";"target_F";"target_left";"cue_1";"200ms";"correct";"congruent";604
"mGCP-III";"1";"2018-01-11_09:18";"4";"295";NA;"61";NA;NA;"cue_right";"target_E";"target_right";"cue_1";"200ms";"correct";"congruent";554
"mGCP-III";"1";"2018-01-11_09:18";"4";"296";NA;"26";NA;NA;"cue_left";"target_F";"target_right";"cue_1";"500ms";"correct";"incongruent";612
"mGCP-III";"1";"2018-01-11_09:18";"4";"297";NA;"37";NA;NA;"cue_right";"target_E";"target_left";"cue_1";"200ms";"correct";"incongruent";661
"mGCP-III";"1";"2018-01-11_09:18";"4";"298";NA;"26";NA;NA;"cue_left";"target_E";"target_right";"cue_1";"200ms";"correct";"incongruent";722
"mGCP-III";"1";"2018-01-11_09:18";"4";"299";NA;"61";NA;NA;"cue_right";"target_F";"target_right";"cue_1";"200ms";"correct";"congruent";730
"mGCP-III";"1";"2018-01-11_09:18";"4";"300";NA;"37";NA;NA;"cue_left";"target_E";"target_left";"cue_1";"200ms";"correct";"congruent";589
"mGCP-III";"1";"2018-01-11_09:18";"4";"301";NA;"26";NA;NA;"cue_right";"target_E";"target_left";"cue_1";"500ms";"correct";"incongruent";555
"mGCP-III";"1";"2018-01-11_09:18";"4";"302";NA;"61";NA;NA;"cue_right";"target_E";"target_left";"cue_1";"500ms";"correct";"incongruent";521
"mGCP-III";"1";"2018-01-11_09:18";"4";"303";NA;"26";NA;NA;"cue_left";"target_F";"target_right";"cue_1";"200ms";"correct";"incongruent";585
"mGCP-III";"1";"2018-01-11_09:18";"4";"304";NA;"61";NA;NA;"cue_left";"target_E";"target_left";"cue_1";"200ms";"correct";"congruent";560
"mGCP-III";"1";"2018-01-11_09:18";"4";"305";NA;"61";NA;NA;"cue_left";"target_F";"target_right";"cue_1";"500ms";"correct";"incongruent";408
"mGCP-III";"1";"2018-01-11_09:18";"4";"306";NA;"61";NA;NA;"cue_left";"target_E";"target_left";"cue_1";"200ms";"incorrect";"congruent";440
"mGCP-III";"1";"2018-01-11_09:18";"4";"307";NA;"26";NA;NA;"cue_right";"target_F";"target_right";"cue_1";"200ms";"incorrect";"congruent";508
"mGCP-III";"1";"2018-01-11_09:19";"4";"308";NA;"61";NA;NA;"cue_right";"target_E";"target_right";"cue_1";"500ms";"correct";"congruent";523
"mGCP-III";"1";"2018-01-11_09:19";"4";"309";NA;"61";NA;NA;"cue_left";"target_E";"target_right";"cue_1";"200ms";"correct";"incongruent";645
"mGCP-III";"1";"2018-01-11_09:19";"4";"310";NA;"37";NA;NA;"cue_right";"target_F";"target_left";"cue_1";"500ms";"correct";"incongruent";488
"mGCP-III";"1";"2018-01-11_09:19";"4";"311";NA;"26";NA;NA;"cue_right";"target_F";"target_left";"cue_1";"200ms";"correct";"incongruent";605
"mGCP-III";"1";"2018-01-11_09:19";"4";"312";NA;"61";NA;NA;"cue_right";"target_E";"target_right";"cue_1";"500ms";"correct";"congruent";437
"mGCP-III";"1";"2018-01-11_09:19";"4";"313";NA;"61";NA;NA;"cue_right";"target_E";"target_left";"cue_1";"200ms";"incorrect";"incongruent";522
"mGCP-III";"1";"2018-01-11_09:19";"4";"314";NA;"61";NA;NA;"cue_right";"target_E";"target_left";"cue_1";"500ms";"correct";"incongruent";550
"mGCP-III";"1";"2018-01-11_09:19";"4";"315";NA;"26";NA;NA;"cue_left";"target_E";"target_right";"cue_1";"500ms";"correct";"incongruent";553
"mGCP-III";"1";"2018-01-11_09:19";"4";"316";NA;"61";NA;NA;"cue_left";"target_F";"target_left";"cue_1";"200ms";"correct";"congruent";526
"mGCP-III";"1";"2018-01-11_09:19";"4";"317";NA;"61";NA;NA;"cue_left";"target_E";"target_right";"cue_1";"500ms";"correct";"incongruent";400
"mGCP-III";"1";"2018-01-11_09:19";"4";"318";NA;"61";NA;NA;"cue_left";"target_F";"target_left";"cue_1";"200ms";"correct";"congruent";570
"mGCP-III";"1";"2018-01-11_09:19";"4";"319";NA;"37";NA;NA;"cue_right";"target_F";"target_right";"cue_1";"200ms";"correct";"congruent";734
"mGCP-III";"1";"2018-01-11_09:19";"4";"320";NA;"26";NA;NA;"cue_left";"target_E";"target_right";"cue_1";"500ms";"correct";"incongruent";528
"mGCP-III";"1";"2018-01-11_09:19";"4";"321";NA;"37";NA;NA;"cue_left";"target_F";"target_left";"cue_1";"500ms";"correct";"congruent";424
"mGCP-III";"1";"2018-01-11_09:19";"4";"322";NA;"37";NA;NA;"cue_left";"target_E";"target_left";"cue_1";"200ms";"correct";"congruent";612
"mGCP-III";"1";"2018-01-11_09:19";"4";"323";NA;"37";NA;NA;"cue_right";"target_E";"target_right";"cue_1";"500ms";"correct";"congruent";525
"mGCP-III";"1";"2018-01-11_09:19";"4";"324";NA;"61";NA;NA;"cue_right";"target_F";"target_left";"cue_1";"500ms";"correct";"incongruent";517
"mGCP-III";"1";"2018-01-11_09:19";"4";"325";NA;"26";NA;NA;"cue_left";"target_E";"target_left";"cue_1";"200ms";"correct";"congruent";601
"mGCP-III";"1";"2018-01-11_09:19";"4";"326";NA;"61";NA;NA;"cue_left";"target_F";"target_right";"cue_1";"200ms";"correct";"incongruent";564
"mGCP-III";"1";"2018-01-11_09:19";"4";"327";NA;"37";NA;NA;"cue_left";"target_F";"target_right";"cue_1";"500ms";"correct";"incongruent";508
"mGCP-III";"1";"2018-01-11_09:19";"4";"328";NA;"37";NA;NA;"cue_left";"target_F";"target_right";"cue_1";"500ms";"correct";"incongruent";463
"mGCP-III";"1";"2018-01-11_09:19";"4";"329";NA;"26";NA;NA;"cue_right";"target_E";"target_left";"cue_1";"500ms";"correct";"incongruent";498
"mGCP-III";"1";"2018-01-11_09:19";"4";"330";NA;"61";NA;NA;"cue_left";"target_F";"target_right";"cue_1";"500ms";"correct";"incongruent";464
"mGCP-III";"1";"2018-01-11_09:19";"4";"331";NA;"61";NA;NA;"cue_right";"target_F";"target_left";"cue_1";"500ms";"incorrect";"incongruent";575
"mGCP-III";"1";"2018-01-11_09:19";"4";"332";NA;"61";NA;NA;"cue_right";"target_F";"target_right";"cue_1";"500ms";"correct";"congruent";461
"mGCP-III";"1";"2018-01-11_09:19";"4";"333";NA;"61";NA;NA;"cue_left";"target_E";"target_left";"cue_1";"500ms";"correct";"congruent";489
"mGCP-III";"1";"2018-01-11_09:19";"4";"334";NA;"26";NA;NA;"cue_left";"target_F";"target_left";"cue_1";"200ms";"correct";"congruent";681
"mGCP-III";"1";"2018-01-11_09:19";"4";"335";NA;"37";NA;NA;"cue_right";"target_F";"target_right";"cue_1";"500ms";"correct";"congruent";500
"mGCP-III";"1";"2018-01-11_09:19";"4";"336";NA;"26";NA;NA;"cue_right";"target_E";"target_left";"cue_1";"200ms";"correct";"incongruent";694
"mGCP-III";"1";"2018-01-11_09:19";"4";"337";NA;"26";NA;NA;"cue_right";"target_F";"target_right";"cue_1";"500ms";"correct";"congruent";479
"mGCP-III";"1";"2018-01-11_09:19";"4";"338";NA;"26";NA;NA;"cue_left";"target_E";"target_left";"cue_1";"500ms";"correct";"congruent";524
"mGCP-III";"1";"2018-01-11_09:20";"4";"339";NA;"61";NA;NA;"cue_left";"target_E";"target_right";"cue_1";"500ms";"correct";"incongruent";529
"mGCP-III";"1";"2018-01-11_09:20";"4";"340";NA;"26";NA;NA;"cue_right";"target_E";"target_right";"cue_1";"500ms";"correct";"congruent";618
"mGCP-III";"1";"2018-01-11_09:20";"4";"341";NA;"37";NA;NA;"cue_right";"target_F";"target_left";"cue_1";"200ms";"correct";"incongruent";610
"mGCP-III";"1";"2018-01-11_09:20";"4";"342";NA;"37";NA;NA;"cue_left";"target_F";"target_right";"cue_1";"200ms";"correct";"incongruent";603
"mGCP-III";"1";"2018-01-11_09:20";"4";"343";NA;"61";NA;NA;"cue_right";"target_F";"target_left";"cue_1";"200ms";NA;"incongruent";NA
"mGCP-III";"1";"2018-01-11_09:20";"4";"344";NA;"37";NA;NA;"cue_left";"target_E";"target_right";"cue_1";"200ms";"correct";"incongruent";425
"mGCP-III";"1";"2018-01-11_09:20";"4";"345";NA;"37";NA;NA;"cue_right";"target_F";"target_left";"cue_1";"500ms";"correct";"incongruent";541
"mGCP-III";"1";"2018-01-11_09:20";"4";"346";NA;"26";NA;NA;"cue_right";"target_E";"target_left";"cue_1";"200ms";"incorrect";"incongruent";584
"mGCP-III";"1";"2018-01-11_09:20";"4";"347";NA;"61";NA;NA;"cue_right";"target_F";"target_left";"cue_1";"200ms";"correct";"incongruent";516
"mGCP-III";"1";"2018-01-11_09:20";"4";"348";NA;"37";NA;NA;"cue_right";"target_E";"target_left";"cue_1";"500ms";"correct";"incongruent";560
"mGCP-III";"1";"2018-01-11_09:20";"4";"349";NA;"37";NA;NA;"cue_right";"target_E";"target_right";"cue_1";"200ms";"correct";"congruent";574
"mGCP-III";"1";"2018-01-11_09:20";"4";"350";NA;"61";NA;NA;"cue_right";"target_E";"target_right";"cue_1";"200ms";"correct";"congruent";580
"mGCP-III";"1";"2018-01-11_09:20";"4";"351";NA;"26";NA;NA;"cue_right";"target_E";"target_right";"cue_1";"200ms";"correct";"congruent";516
"mGCP-III";"1";"2018-01-11_09:20";"4";"352";NA;"61";NA;NA;"cue_left";"target_E";"target_right";"cue_1";"200ms";"correct";"incongruent";608
"mGCP-III";"1";"2018-01-11_09:20";"4";"353";NA;"37";NA;NA;"cue_right";"target_F";"target_right";"cue_1";"200ms";"correct";"congruent";514
"mGCP-III";"1";"2018-01-11_09:20";"4";"354";NA;"26";NA;NA;"cue_left";"target_F";"target_right";"cue_1";"200ms";"correct";"incongruent";687
"mGCP-III";"1";"2018-01-11_09:20";"4";"355";NA;"37";NA;NA;"cue_left";"target_F";"target_left";"cue_1";"500ms";"correct";"congruent";497
"mGCP-III";"1";"2018-01-11_09:20";"4";"356";NA;"26";NA;NA;"cue_right";"target_F";"target_right";"cue_1";"500ms";NA;"congruent";NA
"mGCP-III";"1";"2018-01-11_09:20";"4";"357";NA;"26";NA;NA;"cue_right";"target_F";"target_left";"cue_1";"500ms";"correct";"incongruent";509
"mGCP-III";"1";"2018-01-11_09:20";"4";"358";NA;"26";NA;NA;"cue_left";"target_F";"target_left";"cue_1";"500ms";"correct";"congruent";548
"mGCP-III";"1";"2018-01-11_09:20";"4";"359";NA;"61";NA;NA;"cue_left";"target_F";"target_left";"cue_1";"500ms";"correct";"congruent";375
"mGCP-III";"1";"2018-01-11_09:20";"4";"360";NA;"61";NA;NA;"cue_right";"target_F";"target_right";"cue_1";"200ms";"correct";"congruent";595
"mGCP-III";"1";"2018-01-11_09:20";"4";"361";NA;"61";NA;NA;"cue_left";"target_E";"target_left";"cue_1";"500ms";"correct";"congruent";481
"mGCP-III";"1";"2018-01-11_09:20";"4";"362";NA;"26";NA;NA;"cue_right";"target_E";"target_right";"cue_1";"200ms";"correct";"congruent";617
"mGCP-III";"1";"2018-01-11_09:20";"4";"363";NA;"37";NA;NA;"cue_left";"target_E";"target_right";"cue_1";"200ms";"correct";"incongruent";589
"mGCP-III";"1";"2018-01-11_09:20";"4";"364";NA;"26";NA;NA;"cue_right";"target_F";"target_right";"cue_1";"200ms";"correct";"congruent";564
"mGCP-III";"1";"2018-01-11_09:20";"4";"365";NA;"37";NA;NA;"cue_left";"target_F";"target_left";"cue_1";"200ms";"correct";"congruent";617
"mGCP-III";"1";"2018-01-11_09:20";"4";"366";NA;"37";NA;NA;"cue_right";"target_F";"target_right";"cue_1";"500ms";"correct";"congruent";588
"mGCP-III";"1";"2018-01-11_09:20";"4";"367";NA;"37";NA;NA;"cue_right";"target_E";"target_right";"cue_1";"500ms";"correct";"congruent";499
"mGCP-III";"1";"2018-01-11_09:20";"4";"368";NA;"26";NA;NA;"cue_left";"target_F";"target_left";"cue_1";"500ms";"correct";"congruent";261
"mGCP-III";"1";"2018-01-11_09:21";"4";"369";NA;"37";NA;NA;"cue_right";"target_E";"target_left";"cue_1";"200ms";"correct";"incongruent";622
"mGCP-III";"1";"2018-01-11_09:21";"4";"370";NA;"37";NA;NA;"cue_left";"target_F";"target_right";"cue_1";"200ms";"correct";"incongruent";553
"mGCP-III";"1";"2018-01-11_09:21";"4";"371";NA;"37";NA;NA;"cue_left";"target_F";"target_left";"cue_1";"200ms";"correct";"congruent";517
"mGCP-III";"1";"2018-01-11_09:21";"4";"372";NA;"26";NA;NA;"cue_left";"target_E";"target_left";"cue_1";"500ms";"correct";"congruent";480
"mGCP-III";"1";"2018-01-11_09:21";"4";"373";NA;"26";NA;NA;"cue_right";"target_E";"target_right";"cue_1";"500ms";"correct";"congruent";426
"mGCP-III";"1";"2018-01-11_09:21";"4";"374";NA;"26";NA;NA;"cue_right";"target_F";"target_left";"cue_1";"200ms";"correct";"incongruent";516
"mGCP-III";"1";"2018-01-11_09:21";"4";"375";NA;"37";NA;NA;"cue_left";"target_E";"target_left";"cue_1";"500ms";"correct";"congruent";517
"mGCP-III";"1";"2018-01-11_09:21";"4";"376";NA;"37";NA;NA;"cue_right";"target_E";"target_left";"cue_1";"500ms";"incorrect";"incongruent";499
"mGCP-III";"1";"2018-01-11_09:21";"4";"377";NA;"61";NA;NA;"cue_left";"target_F";"target_right";"cue_1";"200ms";"correct";"incongruent";575
"mGCP-III";"1";"2018-01-11_09:21";"4";"378";NA;"37";NA;NA;"cue_left";"target_E";"target_right";"cue_1";"500ms";"correct";"incongruent";585
"mGCP-III";"1";"2018-01-11_09:21";"4";"379";NA;"26";NA;NA;"cue_left";"target_E";"target_right";"cue_1";"200ms";"correct";"incongruent";477
"mGCP-III";"1";"2018-01-11_09:21";"4";"380";NA;"37";NA;NA;"cue_right";"target_F";"target_left";"cue_1";"200ms";"correct";"incongruent";488
"mGCP-III";"1";"2018-01-11_09:21";"4";"381";NA;"37";NA;NA;"cue_left";"target_E";"target_right";"cue_1";"500ms";"correct";"incongruent";414
"mGCP-III";"1";"2018-01-11_09:21";"4";"382";NA;"37";NA;NA;"cue_left";"target_E";"target_left";"cue_1";"500ms";"incorrect";"congruent";357
"mGCP-III";"1";"2018-01-11_09:21";"4";"383";NA;"26";NA;NA;"cue_left";"target_E";"target_left";"cue_1";"200ms";"correct";"congruent";656
"mGCP-III";"1";"2018-01-11_09:21";"4";"384";NA;"26";NA;NA;"cue_left";"target_F";"target_right";"cue_1";"500ms";"correct";"incongruent";430
"mGCP-III";"2";"2018-01-11_12:03";"1";"1";NA;"37";NA;NA;"cue_right";"target_F";"target_left";"cue_1";"200ms";"correct";"incongruent";637
"mGCP-III";"2";"2018-01-11_12:03";"1";"2";NA;"61";NA;NA;"cue_left";"target_F";"target_left";"cue_1";"200ms";"correct";"congruent";498
"mGCP-III";"2";"2018-01-11_12:03";"1";"3";NA;"61";NA;NA;"cue_right";"target_F";"target_left";"cue_1";"500ms";"correct";"incongruent";356
"mGCP-III";"2";"2018-01-11_12:04";"1";"4";NA;"26";NA;NA;"cue_left";"target_F";"target_left";"cue_1";"200ms";"correct";"congruent";451
"mGCP-III";"2";"2018-01-11_12:04";"1";"5";NA;"61";NA;NA;"cue_right";"target_E";"target_right";"cue_1";"500ms";"correct";"congruent";420
"mGCP-III";"2";"2018-01-11_12:04";"1";"6";NA;"37";NA;NA;"cue_left";"target_F";"target_right";"cue_1";"200ms";"correct";"incongruent";601
"mGCP-III";"2";"2018-01-11_12:04";"1";"7";NA;"61";NA;NA;"cue_left";"target_E";"target_right";"cue_1";"500ms";"correct";"incongruent";617
"mGCP-III";"2";"2018-01-11_12:04";"1";"8";NA;"26";NA;NA;"cue_left";"target_F";"target_right";"cue_1";"500ms";"correct";"incongruent";648
"mGCP-III";"2";"2018-01-11_12:04";"1";"9";NA;"26";NA;NA;"cue_right";"target_F";"target_left";"cue_1";"200ms";"correct";"incongruent";408
"mGCP-III";"2";"2018-01-11_12:04";"1";"10";NA;"61";NA;NA;"cue_left";"target_E";"target_right";"cue_1";"500ms";"incorrect";"incongruent";216
"mGCP-III";"2";"2018-01-11_12:04";"1";"11";NA;"26";NA;NA;"cue_right";"target_F";"target_right";"cue_1";"200ms";"correct";"congruent";489
"mGCP-III";"2";"2018-01-11_12:04";"1";"12";NA;"61";NA;NA;"cue_right";"target_E";"target_right";"cue_1";"500ms";"correct";"congruent";329
"mGCP-III";"2";"2018-01-11_12:04";"1";"13";NA;"26";NA;NA;"cue_left";"target_F";"target_right";"cue_1";"200ms";"correct";"incongruent";493
"mGCP-III";"2";"2018-01-11_12:04";"1";"14";NA;"61";NA;NA;"cue_left";"target_E";"target_left";"cue_1";"500ms";"correct";"congruent";436
"mGCP-III";"2";"2018-01-11_12:04";"1";"15";NA;"26";NA;NA;"cue_right";"target_F";"target_right";"cue_1";"500ms";"correct";"congruent";313
"mGCP-III";"2";"2018-01-11_12:04";"1";"16";NA;"37";NA;NA;"cue_right";"target_F";"target_left";"cue_1";"500ms";"correct";"incongruent";363
"mGCP-III";"2";"2018-01-11_12:04";"1";"17";NA;"26";NA;NA;"cue_right";"target_E";"target_left";"cue_1";"500ms";"correct";"incongruent";471
"mGCP-III";"2";"2018-01-11_12:04";"1";"18";NA;"61";NA;NA;"cue_left";"target_F";"target_right";"cue_1";"200ms";"correct";"incongruent";397
"mGCP-III";"2";"2018-01-11_12:04";"1";"19";NA;"37";NA;NA;"cue_right";"target_E";"target_right";"cue_1";"500ms";"correct";"congruent";388
"mGCP-III";"2";"2018-01-11_12:04";"1";"20";NA;"37";NA;NA;"cue_left";"target_F";"target_right";"cue_1";"200ms";"correct";"incongruent";440
"mGCP-III";"2";"2018-01-11_12:04";"1";"21";NA;"37";NA;NA;"cue_right";"target_E";"target_left";"cue_1";"200ms";"correct";"incongruent";464
"mGCP-III";"2";"2018-01-11_12:04";"1";"22";NA;"37";NA;NA;"cue_left";"target_E";"target_right";"cue_1";"200ms";"incorrect";"incongruent";412
"mGCP-III";"2";"2018-01-11_12:04";"1";"23";NA;"26";NA;NA;"cue_right";"target_E";"target_right";"cue_1";"200ms";"correct";"congruent";478
"mGCP-III";"2";"2018-01-11_12:04";"1";"24";NA;"37";NA;NA;"cue_left";"target_E";"target_left";"cue_1";"500ms";"correct";"congruent";416
"mGCP-III";"2";"2018-01-11_12:04";"1";"25";NA;"37";NA;NA;"cue_right";"target_E";"target_left";"cue_1";"500ms";"incorrect";"incongruent";399
"mGCP-III";"2";"2018-01-11_12:04";"1";"26";NA;"37";NA;NA;"cue_right";"target_E";"target_right";"cue_1";"200ms";"correct";"congruent";546
"mGCP-III";"2";"2018-01-11_12:04";"1";"27";NA;"61";NA;NA;"cue_left";"target_F";"target_left";"cue_1";"500ms";"correct";"congruent";547
"mGCP-III";"2";"2018-01-11_12:04";"1";"28";NA;"37";NA;NA;"cue_right";"target_E";"target_right";"cue_1";"200ms";"correct";"congruent";510
"mGCP-III";"2";"2018-01-11_12:04";"1";"29";NA;"37";NA;NA;"cue_right";"target_F";"target_right";"cue_1";"500ms";"correct";"congruent";525
"mGCP-III";"2";"2018-01-11_12:04";"1";"30";NA;"26";NA;NA;"cue_right";"target_E";"target_right";"cue_1";"200ms";"correct";"congruent";382
"mGCP-III";"2";"2018-01-11_12:04";"1";"31";NA;"37";NA;NA;"cue_left";"target_E";"target_right";"cue_1";"500ms";"correct";"incongruent";345
"mGCP-III";"2";"2018-01-11_12:04";"1";"32";NA;"61";NA;NA;"cue_right";"target_E";"target_left";"cue_1";"500ms";"correct";"incongruent";479
"mGCP-III";"2";"2018-01-11_12:04";"1";"33";NA;"61";NA;NA;"cue_left";"target_E";"target_right";"cue_1";"200ms";"correct";"incongruent";526
"mGCP-III";"2";"2018-01-11_12:04";"1";"34";NA;"61";NA;NA;"cue_left";"target_E";"target_left";"cue_1";"200ms";"correct";"congruent";498
"mGCP-III";"2";"2018-01-11_12:04";"1";"35";NA;"26";NA;NA;"cue_left";"target_F";"target_right";"cue_1";"200ms";"correct";"incongruent";576
"mGCP-III";"2";"2018-01-11_12:04";"1";"36";NA;"37";NA;NA;"cue_left";"target_E";"target_left";"cue_1";"200ms";"correct";"congruent";484
"mGCP-III";"2";"2018-01-11_12:05";"1";"37";NA;"26";NA;NA;"cue_right";"target_F";"target_left";"cue_1";"500ms";"correct";"incongruent";446
"mGCP-III";"2";"2018-01-11_12:05";"1";"38";NA;"37";NA;NA;"cue_right";"target_F";"target_right";"cue_1";"500ms";"correct";"congruent";464
"mGCP-III";"2";"2018-01-11_12:05";"1";"39";NA;"26";NA;NA;"cue_left";"target_E";"target_left";"cue_1";"500ms";"correct";"congruent";446
"mGCP-III";"2";"2018-01-11_12:05";"1";"40";NA;"26";NA;NA;"cue_left";"target_F";"target_right";"cue_1";"500ms";"correct";"incongruent";405
"mGCP-III";"2";"2018-01-11_12:05";"1";"41";NA;"61";NA;NA;"cue_left";"target_E";"target_right";"cue_1";"200ms";"correct";"incongruent";443
"mGCP-III";"2";"2018-01-11_12:05";"1";"42";NA;"37";NA;NA;"cue_left";"target_F";"target_left";"cue_1";"200ms";"correct";"congruent";455
"mGCP-III";"2";"2018-01-11_12:05";"1";"43";NA;"61";NA;NA;"cue_right";"target_F";"target_right";"cue_1";"500ms";"correct";"congruent";557
"mGCP-III";"2";"2018-01-11_12:05";"1";"44";NA;"37";NA;NA;"cue_left";"target_E";"target_left";"cue_1";"500ms";"correct";"congruent";494
"mGCP-III";"2";"2018-01-11_12:05";"1";"45";NA;"37";NA;NA;"cue_left";"target_E";"target_right";"cue_1";"200ms";"correct";"incongruent";608
"mGCP-III";"2";"2018-01-11_12:05";"1";"46";NA;"37";NA;NA;"cue_left";"target_F";"target_right";"cue_1";"500ms";"correct";"incongruent";572
"mGCP-III";"2";"2018-01-11_12:05";"1";"47";NA;"26";NA;NA;"cue_left";"target_E";"target_right";"cue_1";"200ms";"correct";"incongruent";566
"mGCP-III";"2";"2018-01-11_12:05";"1";"48";NA;"37";NA;NA;"cue_right";"target_F";"target_left";"cue_1";"200ms";"correct";"incongruent";479
"mGCP-III";"2";"2018-01-11_12:05";"1";"49";NA;"37";NA;NA;"cue_right";"target_E";"target_left";"cue_1";"500ms";"correct";"incongruent";474
"mGCP-III";"2";"2018-01-11_12:05";"1";"50";NA;"37";NA;NA;"cue_left";"target_E";"target_left";"cue_1";"200ms";"correct";"congruent";519
"mGCP-III";"2";"2018-01-11_12:05";"1";"51";NA;"61";NA;NA;"cue_left";"target_F";"target_left";"cue_1";"500ms";"correct";"congruent";503
"mGCP-III";"2";"2018-01-11_12:05";"1";"52";NA;"61";NA;NA;"cue_right";"target_F";"target_right";"cue_1";"200ms";"correct";"congruent";552
"mGCP-III";"2";"2018-01-11_12:05";"1";"53";NA;"37";NA;NA;"cue_right";"target_F";"target_right";"cue_1";"200ms";"correct";"congruent";542
"mGCP-III";"2";"2018-01-11_12:05";"1";"54";NA;"61";NA;NA;"cue_right";"target_F";"target_right";"cue_1";"500ms";"correct";"congruent";450
"mGCP-III";"2";"2018-01-11_12:05";"1";"55";NA;"26";NA;NA;"cue_left";"target_E";"target_left";"cue_1";"200ms";"correct";"congruent";554
"mGCP-III";"2";"2018-01-11_12:05";"1";"56";NA;"61";NA;NA;"cue_right";"target_F";"target_left";"cue_1";"200ms";"correct";"incongruent";689
"mGCP-III";"2";"2018-01-11_12:05";"1";"57";NA;"61";NA;NA;"cue_left";"target_F";"target_right";"cue_1";"500ms";"incorrect";"incongruent";665
"mGCP-III";"2";"2018-01-11_12:05";"1";"58";NA;"61";NA;NA;"cue_left";"target_F";"target_left";"cue_1";"200ms";"correct";"congruent";519
"mGCP-III";"2";"2018-01-11_12:05";"1";"59";NA;"61";NA;NA;"cue_right";"target_E";"target_left";"cue_1";"200ms";"correct";"incongruent";668
"mGCP-III";"2";"2018-01-11_12:05";"1";"60";NA;"26";NA;NA;"cue_left";"target_F";"target_left";"cue_1";"500ms";"correct";"congruent";343
"mGCP-III";"2";"2018-01-11_12:05";"1";"61";NA;"26";NA;NA;"cue_right";"target_E";"target_left";"cue_1";"500ms";"correct";"incongruent";326
"mGCP-III";"2";"2018-01-11_12:05";"1";"62";NA;"26";NA;NA;"cue_right";"target_F";"target_right";"cue_1";"500ms";"correct";"congruent";477
"mGCP-III";"2";"2018-01-11_12:05";"1";"63";NA;"26";NA;NA;"cue_left";"target_E";"target_right";"cue_1";"500ms";"correct";"incongruent";462
"mGCP-III";"2";"2018-01-11_12:05";"1";"64";NA;"37";NA;NA;"cue_right";"target_E";"target_right";"cue_1";"500ms";"correct";"congruent";543
"mGCP-III";"2";"2018-01-11_12:05";"1";"65";NA;"61";NA;NA;"cue_left";"target_F";"target_right";"cue_1";"200ms";"correct";"incongruent";476
"mGCP-III";"2";"2018-01-11_12:05";"1";"66";NA;"61";NA;NA;"cue_right";"target_E";"target_right";"cue_1";"200ms";"correct";"congruent";513
"mGCP-III";"2";"2018-01-11_12:05";"1";"67";NA;"37";NA;NA;"cue_right";"target_E";"target_left";"cue_1";"200ms";"correct";"incongruent";517
"mGCP-III";"2";"2018-01-11_12:05";"1";"68";NA;"61";NA;NA;"cue_right";"target_F";"target_left";"cue_1";"500ms";"correct";"incongruent";378
"mGCP-III";"2";"2018-01-11_12:06";"1";"69";NA;"37";NA;NA;"cue_left";"target_F";"target_left";"cue_1";"500ms";"correct";"congruent";798
"mGCP-III";"2";"2018-01-11_12:06";"1";"70";NA;"61";NA;NA;"cue_right";"target_E";"target_left";"cue_1";"200ms";"correct";"incongruent";552
"mGCP-III";"2";"2018-01-11_12:06";"1";"71";NA;"26";NA;NA;"cue_left";"target_F";"target_left";"cue_1";"500ms";"correct";"congruent";537
"mGCP-III";"2";"2018-01-11_12:06";"1";"72";NA;"37";NA;NA;"cue_left";"target_F";"target_left";"cue_1";"200ms";"correct";"congruent";515
"mGCP-III";"2";"2018-01-11_12:06";"1";"73";NA;"26";NA;NA;"cue_left";"target_E";"target_left";"cue_1";"500ms";"correct";"congruent";615
"mGCP-III";"2";"2018-01-11_12:06";"1";"74";NA;"61";NA;NA;"cue_left";"target_F";"target_right";"cue_1";"500ms";"correct";"incongruent";569
"mGCP-III";"2";"2018-01-11_12:06";"1";"75";NA;"61";NA;NA;"cue_right";"target_E";"target_left";"cue_1";"500ms";"correct";"incongruent";493
"mGCP-III";"2";"2018-01-11_12:06";"1";"76";NA;"61";NA;NA;"cue_left";"target_E";"target_left";"cue_1";"500ms";"correct";"congruent";493
"mGCP-III";"2";"2018-01-11_12:06";"1";"77";NA;"37";NA;NA;"cue_left";"target_F";"target_left";"cue_1";"500ms";"correct";"congruent";507
"mGCP-III";"2";"2018-01-11_12:06";"1";"78";NA;"26";NA;NA;"cue_right";"target_E";"target_right";"cue_1";"500ms";"correct";"congruent";426
"mGCP-III";"2";"2018-01-11_12:06";"1";"79";NA;"26";NA;NA;"cue_right";"target_E";"target_left";"cue_1";"200ms";"correct";"incongruent";514
"mGCP-III";"2";"2018-01-11_12:06";"1";"80";NA;"26";NA;NA;"cue_left";"target_E";"target_right";"cue_1";"200ms";"correct";"incongruent";585
"mGCP-III";"2";"2018-01-11_12:06";"1";"81";NA;"26";NA;NA;"cue_right";"target_F";"target_left";"cue_1";"200ms";"correct";"incongruent";385
"mGCP-III";"2";"2018-01-11_12:06";"1";"82";NA;"61";NA;NA;"cue_right";"target_E";"target_right";"cue_1";"200ms";"correct";"congruent";493
"mGCP-III";"2";"2018-01-11_12:06";"1";"83";NA;"37";NA;NA;"cue_right";"target_F";"target_right";"cue_1";"200ms";"correct";"congruent";456
"mGCP-III";"2";"2018-01-11_12:06";"1";"84";NA;"61";NA;NA;"cue_left";"target_E";"target_left";"cue_1";"200ms";"correct";"congruent";479
"mGCP-III";"2";"2018-01-11_12:06";"1";"85";NA;"61";NA;NA;"cue_right";"target_F";"target_right";"cue_1";"200ms";"correct";"congruent";489
"mGCP-III";"2";"2018-01-11_12:06";"1";"86";NA;"61";NA;NA;"cue_right";"target_F";"target_left";"cue_1";"200ms";"incorrect";"incongruent";410
"mGCP-III";"2";"2018-01-11_12:06";"1";"87";NA;"37";NA;NA;"cue_right";"target_F";"target_left";"cue_1";"500ms";"correct";"incongruent";495
"mGCP-III";"2";"2018-01-11_12:06";"1";"88";NA;"37";NA;NA;"cue_left";"target_F";"target_right";"cue_1";"500ms";"correct";"incongruent";568
"mGCP-III";"2";"2018-01-11_12:06";"1";"89";NA;"26";NA;NA;"cue_right";"target_F";"target_left";"cue_1";"500ms";"correct";"incongruent";476
"mGCP-III";"2";"2018-01-11_12:06";"1";"90";NA;"26";NA;NA;"cue_right";"target_E";"target_left";"cue_1";"200ms";"correct";"incongruent";695
"mGCP-III";"2";"2018-01-11_12:06";"1";"91";NA;"26";NA;NA;"cue_left";"target_F";"target_left";"cue_1";"200ms";"correct";"congruent";448
"mGCP-III";"2";"2018-01-11_12:06";"1";"92";NA;"26";NA;NA;"cue_right";"target_E";"target_right";"cue_1";"500ms";"correct";"congruent";473
"mGCP-III";"2";"2018-01-11_12:06";"1";"93";NA;"26";NA;NA;"cue_right";"target_F";"target_right";"cue_1";"200ms";"correct";"congruent";549
"mGCP-III";"2";"2018-01-11_12:06";"1";"94";NA;"26";NA;NA;"cue_left";"target_E";"target_left";"cue_1";"200ms";"incorrect";"congruent";467
"mGCP-III";"2";"2018-01-11_12:06";"1";"95";NA;"37";NA;NA;"cue_left";"target_E";"target_right";"cue_1";"500ms";"correct";"incongruent";595
"mGCP-III";"2";"2018-01-11_12:06";"1";"96";NA;"26";NA;NA;"cue_left";"target_E";"target_right";"cue_1";"500ms";"correct";"incongruent";592
"mGCP-III";"2";"2018-01-11_12:07";"2";"97";"61";"37";"26";"2";"cue_left";"target_E";"target_right";"cue_3";"500ms";"correct";"incongruent";710
"mGCP-III";"2";"2018-01-11_12:07";"2";"98";"37";"26";"61";"6";"cue_left";"target_E";"target_left";"cue_3";"500ms";"correct";"congruent";496
"mGCP-III";"2";"2018-01-11_12:07";"2";NA;"37";"61";"26";"5";"cue_left";"target_E";"target_right";"cue_3";"500ms";"correct";"incongruent";344
"mGCP-III";"2";"2018-01-11_12:07";"2";"100";"37";"26";"61";"6";"cue_right";"target_E";"target_left";"cue_3";"200ms";"correct";"incongruent";536
"mGCP-III";"2";"2018-01-11_12:07";"2";"101";"61";"37";"26";"2";"cue_right";"target_E";"target_left";"cue_3";"500ms";"correct";"incongruent";378
"mGCP-III";"2";"2018-01-11_12:07";"2";"102";"37";"26";"61";"6";"cue_left";"target_F";"target_right";"cue_3";"500ms";"incorrect";"incongruent";361
"mGCP-III";"2";"2018-01-11_12:07";"2";"103";"37";"61";"26";"5";"cue_left";"target_F";"target_left";"cue_3";"200ms";"correct";"congruent";509
"mGCP-III";"2";"2018-01-11_12:07";"2";"104";"37";"26";"61";"6";"cue_left";"target_E";"target_left";"cue_3";"200ms";"correct";"congruent";527
"mGCP-III";"2";"2018-01-11_12:07";"2";"105";"37";"26";"61";"6";"cue_right";"target_E";"target_left";"cue_3";"500ms";"correct";"incongruent";424
"mGCP-III";"2";"2018-01-11_12:07";"2";"106";"61";"26";"37";"1";"cue_right";"target_F";"target_left";"cue_3";"500ms";"correct";"incongruent";496
"mGCP-III";"2";"2018-01-11_12:07";"2";"107";"26";"61";"37";"3";"cue_right";"target_E";"target_left";"cue_3";"200ms";"correct";"incongruent";604
"mGCP-III";"2";"2018-01-11_12:07";"2";"108";"26";"37";"61";"4";"cue_right";"target_F";"target_right";"cue_3";"200ms";"correct";"congruent";415
"mGCP-III";"2";"2018-01-11_12:07";"2";"109";"61";"26";"37";"1";"cue_right";"target_F";"target_right";"cue_3";"200ms";"correct";"congruent";413
"mGCP-III";"2";"2018-01-11_12:07";"2";"110";"37";"61";"26";"5";"cue_left";"target_F";"target_left";"cue_3";"500ms";"correct";"congruent";387
"mGCP-III";"2";"2018-01-11_12:07";"2";"111";"37";"26";"61";"6";"cue_left";"target_E";"target_right";"cue_3";"500ms";"correct";"incongruent";425
"mGCP-III";"2";"2018-01-11_12:07";"2";"112";"26";"37";"61";"4";"cue_left";"target_F";"target_left";"cue_3";"500ms";"correct";"congruent";350
"mGCP-III";"2";"2018-01-11_12:07";"2";"113";"37";"26";"61";"6";"cue_left";"target_E";"target_right";"cue_3";"200ms";"correct";"incongruent";436
"mGCP-III";"2";"2018-01-11_12:07";"2";"114";"26";"61";"37";"3";"cue_left";"target_E";"target_right";"cue_3";"200ms";"correct";"incongruent";336
"mGCP-III";"2";"2018-01-11_12:07";"2";"115";"26";"61";"37";"3";"cue_right";"target_E";"target_right";"cue_3";"500ms";"correct";"congruent";366
"mGCP-III";"2";"2018-01-11_12:07";"2";"116";"37";"61";"26";"5";"cue_left";"target_E";"target_right";"cue_3";"200ms";"correct";"incongruent";617
"mGCP-III";"2";"2018-01-11_12:07";"2";"117";"26";"37";"61";"4";"cue_left";"target_F";"target_right";"cue_3";"200ms";"correct";"incongruent";569
"mGCP-III";"2";"2018-01-11_12:07";"2";"118";"37";"61";"26";"5";"cue_left";"target_F";"target_right";"cue_3";"200ms";"incorrect";"incongruent";448
"mGCP-III";"2";"2018-01-11_12:07";"2";"119";"26";"61";"37";"3";"cue_right";"target_F";"target_right";"cue_3";"500ms";"correct";"congruent";377
"mGCP-III";"2";"2018-01-11_12:07";"2";"120";"61";"26";"37";"1";"cue_left";"target_E";"target_left";"cue_3";"500ms";"correct";"congruent";488
"mGCP-III";"2";"2018-01-11_12:07";"2";"121";"26";"61";"37";"3";"cue_right";"target_E";"target_right";"cue_3";"200ms";"correct";"congruent";578
"mGCP-III";"2";"2018-01-11_12:07";"2";"122";"61";"37";"26";"2";"cue_right";"target_F";"target_left";"cue_3";"200ms";"correct";"incongruent";483
"mGCP-III";"2";"2018-01-11_12:07";"2";"123";"61";"26";"37";"1";"cue_left";"target_E";"target_right";"cue_3";"500ms";"correct";"incongruent";422
"mGCP-III";"2";"2018-01-11_12:07";"2";"124";"37";"26";"61";"6";"cue_left";"target_F";"target_right";"cue_3";"200ms";"correct";"incongruent";493
"mGCP-III";"2";"2018-01-11_12:07";"2";"125";"37";"61";"26";"5";"cue_right";"target_F";"target_left";"cue_3";"500ms";"correct";"incongruent";543
"mGCP-III";"2";"2018-01-11_12:07";"2";"126";"26";"37";"61";"4";"cue_right";"target_E";"target_left";"cue_3";"500ms";"correct";"incongruent";585
"mGCP-III";"2";"2018-01-11_12:08";"2";"127";"61";"37";"26";"2";"cue_right";"target_F";"target_left";"cue_3";"500ms";"correct";"incongruent";565
"mGCP-III";"2";"2018-01-11_12:08";"2";"128";"61";"37";"26";"2";"cue_right";"target_E";"target_left";"cue_3";"200ms";"correct";"incongruent";496
"mGCP-III";"2";"2018-01-11_12:08";"2";"129";"26";"61";"37";"3";"cue_right";"target_F";"target_left";"cue_3";"500ms";"correct";"incongruent";403
"mGCP-III";"2";"2018-01-11_12:08";"2";"130";"26";"37";"61";"4";"cue_right";"target_E";"target_right";"cue_3";"500ms";"correct";"congruent";508
"mGCP-III";"2";"2018-01-11_12:08";"2";"131";"37";"61";"26";"5";"cue_left";"target_E";"target_left";"cue_3";"200ms";"correct";"congruent";568
"mGCP-III";"2";"2018-01-11_12:08";"2";"132";"37";"26";"61";"6";"cue_right";"target_E";"target_right";"cue_3";"500ms";"correct";"congruent";415
"mGCP-III";"2";"2018-01-11_12:08";"2";"133";"61";"26";"37";"1";"cue_left";"target_F";"target_left";"cue_3";"500ms";"correct";"congruent";345
"mGCP-III";"2";"2018-01-11_12:08";"2";"134";"26";"37";"61";"4";"cue_left";"target_E";"target_right";"cue_3";"200ms";"correct";"incongruent";410
"mGCP-III";"2";"2018-01-11_12:08";"2";"135";"26";"61";"37";"3";"cue_left";"target_E";"target_left";"cue_3";"500ms";"incorrect";"congruent";331
"mGCP-III";"2";"2018-01-11_12:08";"2";"136";"37";"61";"26";"5";"cue_right";"target_E";"target_right";"cue_3";"200ms";"correct";"congruent";351
"mGCP-III";"2";"2018-01-11_12:08";"2";"137";"37";"61";"26";"5";"cue_right";"target_E";"target_left";"cue_3";"500ms";"incorrect";"incongruent";294
"mGCP-III";"2";"2018-01-11_12:08";"2";"138";"61";"37";"26";"2";"cue_left";"target_F";"target_left";"cue_3";"500ms";"correct";"congruent";528
"mGCP-III";"2";"2018-01-11_12:08";"2";"139";"26";"61";"37";"3";"cue_left";"target_E";"target_left";"cue_3";"200ms";"correct";"congruent";496
"mGCP-III";"2";"2018-01-11_12:08";"2";"140";"61";"26";"37";"1";"cue_right";"target_E";"target_right";"cue_3";"200ms";"correct";"congruent";484
"mGCP-III";"2";"2018-01-11_12:08";"2";"141";"26";"37";"61";"4";"cue_right";"target_F";"target_left";"cue_3";"500ms";"correct";"incongruent";459
"mGCP-III";"2";"2018-01-11_12:08";"2";"142";"26";"37";"61";"4";"cue_left";"target_E";"target_right";"cue_3";"500ms";"correct";"incongruent";381
"mGCP-III";"2";"2018-01-11_12:08";"2";"143";"61";"26";"37";"1";"cue_left";"target_E";"target_left";"cue_3";"200ms";"incorrect";"congruent";425
"mGCP-III";"2";"2018-01-11_12:08";"2";"144";"61";"26";"37";"1";"cue_right";"target_E";"target_left";"cue_3";"500ms";"correct";"incongruent";490
"mGCP-III";"2";"2018-01-11_12:08";"2";"145";"37";"26";"61";"6";"cue_right";"target_E";"target_right";"cue_3";"200ms";"correct";"congruent";456
"mGCP-III";"2";"2018-01-11_12:08";"2";"146";"26";"61";"37";"3";"cue_right";"target_F";"target_left";"cue_3";"200ms";"correct";"incongruent";527
"mGCP-III";"2";"2018-01-11_12:08";"2";"147";"61";"26";"37";"1";"cue_left";"target_F";"target_left";"cue_3";"200ms";"correct";"congruent";508
"mGCP-III";"2";"2018-01-11_12:08";"2";"148";"37";"61";"26";"5";"cue_right";"target_F";"target_right";"cue_3";"500ms";"correct";"congruent";589
"mGCP-III";"2";"2018-01-11_12:08";"2";"149";"37";"26";"61";"6";"cue_left";"target_F";"target_left";"cue_3";"200ms";"correct";"congruent";485
"mGCP-III";"2";"2018-01-11_12:08";"2";"150";"37";"61";"26";"5";"cue_left";"target_E";"target_left";"cue_3";"500ms";"correct";"congruent";494
"mGCP-III";"2";"2018-01-11_12:08";"2";"151";"37";"61";"26";"5";"cue_right";"target_E";"target_left";"cue_3";"200ms";"correct";"incongruent";594
"mGCP-III";"2";"2018-01-11_12:08";"2";"152";"26";"61";"37";"3";"cue_left";"target_F";"target_right";"cue_3";"500ms";"correct";"incongruent";515
"mGCP-III";"2";"2018-01-11_12:08";"2";"153";"37";"26";"61";"6";"cue_left";"target_F";"target_left";"cue_3";"500ms";"correct";"congruent";611
"mGCP-III";"2";"2018-01-11_12:08";"2";"154";"61";"26";"37";"1";"cue_left";"target_F";"target_right";"cue_3";"200ms";"correct";"incongruent";474
"mGCP-III";"2";"2018-01-11_12:08";"2";"155";"37";"61";"26";"5";"cue_right";"target_E";"target_right";"cue_3";"500ms";"correct";"congruent";534
"mGCP-III";"2";"2018-01-11_12:08";"2";"156";"26";"61";"37";"3";"cue_left";"target_E";"target_right";"cue_3";"500ms";"correct";"incongruent";605
"mGCP-III";"2";"2018-01-11_12:08";"2";"157";"26";"37";"61";"4";"cue_right";"target_F";"target_left";"cue_3";"200ms";NA;"incongruent";NA
"mGCP-III";"2";"2018-01-11_12:09";"2";"158";"26";"37";"61";"4";"cue_left";"target_E";"target_left";"cue_3";"200ms";"correct";"congruent";480
"mGCP-III";"2";"2018-01-11_12:09";"2";"159";"61";"26";"37";"1";"cue_right";"target_F";"target_right";"cue_3";"500ms";"correct";"congruent";568
"mGCP-III";"2";"2018-01-11_12:09";"2";"160";"26";"37";"61";"4";"cue_right";"target_E";"target_right";"cue_3";"200ms";"correct";"congruent";485
"mGCP-III";"2";"2018-01-11_12:09";"2";"161";"61";"37";"26";"2";"cue_right";"target_F";"target_right";"cue_3";"500ms";"correct";"congruent";432
"mGCP-III";"2";"2018-01-11_12:09";"2";"162";"26";"61";"37";"3";"cue_left";"target_F";"target_left";"cue_3";"200ms";"correct";"congruent";501
"mGCP-III";"2";"2018-01-11_12:09";"2";"163";"37";"26";"61";"6";"cue_right";"target_F";"target_left";"cue_3";"200ms";"correct";"incongruent";431
"mGCP-III";"2";"2018-01-11_12:09";"2";"164";"26";"37";"61";"4";"cue_right";"target_E";"target_left";"cue_3";"200ms";"correct";"incongruent";505
"mGCP-III";"2";"2018-01-11_12:09";"2";"165";"37";"61";"26";"5";"cue_right";"target_F";"target_left";"cue_3";"200ms";"correct";"incongruent";557
"mGCP-III";"2";"2018-01-11_12:09";"2";"166";"61";"37";"26";"2";"cue_right";"target_E";"target_right";"cue_3";"200ms";"correct";"congruent";497
"mGCP-III";"2";"2018-01-11_12:09";"2";"167";"37";"26";"61";"6";"cue_right";"target_F";"target_right";"cue_3";"200ms";"correct";"congruent";505
"mGCP-III";"2";"2018-01-11_12:09";"2";"168";"61";"37";"26";"2";"cue_left";"target_F";"target_left";"cue_3";"200ms";"correct";"congruent";534
"mGCP-III";"2";"2018-01-11_12:09";"2";"169";"61";"37";"26";"2";"cue_left";"target_E";"target_right";"cue_3";"200ms";"correct";"incongruent";515
"mGCP-III";"2";"2018-01-11_12:09";"2";"170";"61";"26";"37";"1";"cue_right";"target_F";"target_left";"cue_3";"200ms";"correct";"incongruent";407
"mGCP-III";"2";"2018-01-11_12:09";"2";"171";"26";"37";"61";"4";"cue_right";"target_F";"target_right";"cue_3";"500ms";"correct";"congruent";552
"mGCP-III";"2";"2018-01-11_12:09";"2";"172";"61";"37";"26";"2";"cue_left";"target_E";"target_left";"cue_3";"200ms";"correct";"congruent";515
"mGCP-III";"2";"2018-01-11_12:09";"2";"173";"26";"37";"61";"4";"cue_left";"target_F";"target_right";"cue_3";"500ms";"correct";"incongruent";417
"mGCP-III";"2";"2018-01-11_12:09";"2";"174";"61";"37";"26";"2";"cue_left";"target_F";"target_right";"cue_3";"200ms";"correct";"incongruent";454
"mGCP-III";"2";"2018-01-11_12:09";"2";"175";"61";"37";"26";"2";"cue_right";"target_F";"target_right";"cue_3";"200ms";"correct";"congruent";388
"mGCP-III";"2";"2018-01-11_12:09";"2";"176";"26";"61";"37";"3";"cue_left";"target_F";"target_right";"cue_3";"200ms";"correct";"incongruent";407
"mGCP-III";"2";"2018-01-11_12:09";"2";"177";"37";"26";"61";"6";"cue_right";"target_F";"target_right";"cue_3";"500ms";"correct";"congruent";497
"mGCP-III";"2";"2018-01-11_12:09";"2";"178";"37";"61";"26";"5";"cue_left";"target_F";"target_right";"cue_3";"500ms";"correct";"incongruent";318
"mGCP-III";"2";"2018-01-11_12:09";"2";"179";"26";"61";"37";"3";"cue_left";"target_F";"target_left";"cue_3";"500ms";"incorrect";"congruent";406
"mGCP-III";"2";"2018-01-11_12:09";"2";"180";"61";"37";"26";"2";"cue_left";"target_F";"target_right";"cue_3";"500ms";"correct";"incongruent";319
"mGCP-III";"2";"2018-01-11_12:09";"2";"181";"26";"37";"61";"4";"cue_left";"target_E";"target_left";"cue_3";"500ms";"correct";"congruent";486
"mGCP-III";"2";"2018-01-11_12:09";"2";"182";"61";"26";"37";"1";"cue_right";"target_E";"target_left";"cue_3";"200ms";"correct";"incongruent";602
"mGCP-III";"2";"2018-01-11_12:09";"2";"183";"61";"26";"37";"1";"cue_right";"target_E";"target_right";"cue_3";"500ms";"correct";"congruent";442
"mGCP-III";"2";"2018-01-11_12:09";"2";"184";"61";"26";"37";"1";"cue_left";"target_F";"target_right";"cue_3";"500ms";"correct";"incongruent";547
"mGCP-III";"2";"2018-01-11_12:09";"2";"185";"37";"26";"61";"6";"cue_right";"target_F";"target_left";"cue_3";"500ms";"correct";"incongruent";412
"mGCP-III";"2";"2018-01-11_12:09";"2";"186";"26";"61";"37";"3";"cue_right";"target_F";"target_right";"cue_3";"200ms";"correct";"congruent";510
"mGCP-III";"2";"2018-01-11_12:09";"2";"187";"61";"37";"26";"2";"cue_left";"target_E";"target_left";"cue_3";"500ms";"correct";"congruent";488
"mGCP-III";"2";"2018-01-11_12:09";"2";"188";"26";"37";"61";"4";"cue_left";"target_F";"target_left";"cue_3";"200ms";"correct";"congruent";454
"mGCP-III";"2";"2018-01-11_12:09";"2";"189";"61";"26";"37";"1";"cue_left";"target_E";"target_right";"cue_3";"200ms";"correct";"incongruent";519
"mGCP-III";"2";"2018-01-11_12:10";"2";"190";"26";"61";"37";"3";"cue_right";"target_E";"target_left";"cue_3";"500ms";"incorrect";"incongruent";362
"mGCP-III";"2";"2018-01-11_12:10";"2";"191";"61";"37";"26";"2";"cue_right";"target_E";"target_right";"cue_3";"500ms";"correct";"congruent";402
"mGCP-III";"2";"2018-01-11_12:10";"2";"192";"37";"61";"26";"5";"cue_right";"target_F";"target_right";"cue_3";"200ms";"correct";"congruent";537
"mGCP-III";"2";"2018-01-11_12:10";"3";"193";NA;"61";NA;NA;"cue_left";"target_F";"target_left";"cue_1";"200ms";"correct";"congruent";596
"mGCP-III";"2";"2018-01-11_12:10";"3";"194";NA;"61";NA;NA;"cue_left";"target_E";"target_left";"cue_1";"200ms";"correct";"congruent";521
"mGCP-III";"2";"2018-01-11_12:10";"3";"195";NA;"26";NA;NA;"cue_left";"target_E";"target_right";"cue_1";"200ms";"correct";"incongruent";529
"mGCP-III";"2";"2018-01-11_12:10";"3";"196";NA;"37";NA;NA;"cue_right";"target_E";"target_left";"cue_1";"500ms";"correct";"incongruent";422
"mGCP-III";"2";"2018-01-11_12:10";"3";"197";NA;"37";NA;NA;"cue_left";"target_F";"target_left";"cue_1";"200ms";"correct";"congruent";758
"mGCP-III";"2";"2018-01-11_12:10";"3";"198";NA;"26";NA;NA;"cue_left";"target_F";"target_left";"cue_1";"500ms";"correct";"congruent";605
"mGCP-III";"2";"2018-01-11_12:10";"3";"199";NA;"61";NA;NA;"cue_left";"target_E";"target_right";"cue_1";"200ms";"correct";"incongruent";406
"mGCP-III";"2";"2018-01-11_12:10";"3";"200";NA;"37";NA;NA;"cue_left";"target_E";"target_left";"cue_1";"500ms";"correct";"congruent";412
"mGCP-III";"2";"2018-01-11_12:10";"3";"201";NA;"61";NA;NA;"cue_right";"target_F";"target_right";"cue_1";"500ms";"correct";"congruent";404
"mGCP-III";"2";"2018-01-11_12:10";"3";"202";NA;"26";NA;NA;"cue_right";"target_E";"target_left";"cue_1";"200ms";"correct";"incongruent";575
"mGCP-III";"2";"2018-01-11_12:10";"3";"203";NA;"37";NA;NA;"cue_right";"target_E";"target_right";"cue_1";"200ms";"correct";"congruent";759
"mGCP-III";"2";"2018-01-11_12:10";"3";"204";NA;"26";NA;NA;"cue_left";"target_F";"target_right";"cue_1";"200ms";"correct";"incongruent";566
"mGCP-III";"2";"2018-01-11_12:10";"3";"205";NA;"61";NA;NA;"cue_right";"target_F";"target_left";"cue_1";"200ms";"correct";"incongruent";610
"mGCP-III";"2";"2018-01-11_12:10";"3";"206";NA;"37";NA;NA;"cue_left";"target_E";"target_left";"cue_1";"200ms";"correct";"congruent";758
"mGCP-III";"2";"2018-01-11_12:10";"3";"207";NA;"26";NA;NA;"cue_left";"target_E";"target_left";"cue_1";"500ms";"correct";"congruent";418
"mGCP-III";"2";"2018-01-11_12:10";"3";"208";NA;"61";NA;NA;"cue_left";"target_F";"target_right";"cue_1";"200ms";"correct";"incongruent";613
"mGCP-III";"2";"2018-01-11_12:10";"3";"209";NA;"61";NA;NA;"cue_right";"target_E";"target_right";"cue_1";"200ms";"incorrect";"congruent";446
"mGCP-III";"2";"2018-01-11_12:10";"3";"210";NA;"26";NA;NA;"cue_right";"target_F";"target_right";"cue_1";"200ms";"correct";"congruent";477
"mGCP-III";"2";"2018-01-11_12:10";"3";"211";NA;"26";NA;NA;"cue_left";"target_E";"target_left";"cue_1";"200ms";"correct";"congruent";385
"mGCP-III";"2";"2018-01-11_12:10";"3";"212";NA;"61";NA;NA;"cue_right";"target_E";"target_right";"cue_1";"500ms";"correct";"congruent";419
"mGCP-III";"2";"2018-01-11_12:10";"3";"213";NA;"61";NA;NA;"cue_left";"target_F";"target_right";"cue_1";"500ms";"correct";"incongruent";463
"mGCP-III";"2";"2018-01-11_12:10";"3";"214";NA;"37";NA;NA;"cue_left";"target_F";"target_right";"cue_1";"200ms";"correct";"incongruent";386
"mGCP-III";"2";"2018-01-11_12:10";"3";"215";NA;"61";NA;NA;"cue_left";"target_F";"target_left";"cue_1";"500ms";"correct";"congruent";507
"mGCP-III";"2";"2018-01-11_12:10";"3";"216";NA;"61";NA;NA;"cue_left";"target_E";"target_left";"cue_1";"500ms";"incorrect";"congruent";400
"mGCP-III";"2";"2018-01-11_12:10";"3";"217";NA;"61";NA;NA;"cue_left";"target_F";"target_right";"cue_1";"500ms";"correct";"incongruent";443
"mGCP-III";"2";"2018-01-11_12:10";"3";"218";NA;"61";NA;NA;"cue_left";"target_E";"target_right";"cue_1";"500ms";NA;"incongruent";NA
"mGCP-III";"2";"2018-01-11_12:11";"3";"219";NA;"37";NA;NA;"cue_right";"target_E";"target_right";"cue_1";"500ms";"correct";"congruent";436
"mGCP-III";"2";"2018-01-11_12:11";"3";"220";NA;"37";NA;NA;"cue_right";"target_F";"target_left";"cue_1";"500ms";"correct";"incongruent";471
"mGCP-III";"2";"2018-01-11_12:11";"3";"221";NA;"37";NA;NA;"cue_right";"target_E";"target_left";"cue_1";"500ms";"correct";"incongruent";608
"mGCP-III";"2";"2018-01-11_12:11";"3";"222";NA;"61";NA;NA;"cue_left";"target_F";"target_left";"cue_1";"200ms";"correct";"congruent";620
"mGCP-III";"2";"2018-01-11_12:11";"3";"223";NA;"37";NA;NA;"cue_right";"target_E";"target_right";"cue_1";"500ms";"correct";"congruent";386
"mGCP-III";"2";"2018-01-11_12:11";"3";"224";NA;"61";NA;NA;"cue_right";"target_F";"target_left";"cue_1";"200ms";"correct";"incongruent";438
"mGCP-III";"2";"2018-01-11_12:11";"3";"225";NA;"61";NA;NA;"cue_right";"target_E";"target_left";"cue_1";"500ms";"incorrect";"incongruent";479
"mGCP-III";"2";"2018-01-11_12:11";"3";"226";NA;"26";NA;NA;"cue_left";"target_E";"target_right";"cue_1";"500ms";"correct";"incongruent";425
"mGCP-III";"2";"2018-01-11_12:11";"3";"227";NA;"37";NA;NA;"cue_right";"target_F";"target_left";"cue_1";"200ms";"correct";"incongruent";554
"mGCP-III";"2";"2018-01-11_12:11";"3";"228";NA;"61";NA;NA;"cue_left";"target_E";"target_right";"cue_1";"200ms";"correct";"incongruent";463
"mGCP-III";"2";"2018-01-11_12:11";"3";"229";NA;"61";NA;NA;"cue_left";"target_E";"target_left";"cue_1";"200ms";"correct";"congruent";557
"mGCP-III";"2";"2018-01-11_12:11";"3";"230";NA;"37";NA;NA;"cue_left";"target_F";"target_left";"cue_1";"500ms";"correct";"congruent";434
"mGCP-III";"2";"2018-01-11_12:11";"3";"231";NA;"61";NA;NA;"cue_right";"target_F";"target_right";"cue_1";"200ms";"correct";"congruent";657
"mGCP-III";"2";"2018-01-11_12:11";"3";"232";NA;"37";NA;NA;"cue_right";"target_E";"target_left";"cue_1";"200ms";"correct";"incongruent";446
"mGCP-III";"2";"2018-01-11_12:11";"3";"233";NA;"26";NA;NA;"cue_right";"target_E";"target_left";"cue_1";"500ms";"correct";"incongruent";503
"mGCP-III";"2";"2018-01-11_12:11";"3";"234";NA;"26";NA;NA;"cue_left";"target_E";"target_right";"cue_1";"500ms";"correct";"incongruent";462
"mGCP-III";"2";"2018-01-11_12:11";"3";"235";NA;"26";NA;NA;"cue_left";"target_E";"target_left";"cue_1";"500ms";"incorrect";"congruent";524
"mGCP-III";"2";"2018-01-11_12:11";"3";"236";NA;"61";NA;NA;"cue_right";"target_F";"target_left";"cue_1";"500ms";"correct";"incongruent";615
"mGCP-III";"2";"2018-01-11_12:11";"3";"237";NA;"37";NA;NA;"cue_left";"target_E";"target_right";"cue_1";"200ms";"correct";"incongruent";394
"mGCP-III";"2";"2018-01-11_12:11";"3";"238";NA;"26";NA;NA;"cue_right";"target_E";"target_right";"cue_1";"200ms";"correct";"congruent";490
"mGCP-III";"2";"2018-01-11_12:11";"3";"239";NA;"37";NA;NA;"cue_left";"target_F";"target_left";"cue_1";"200ms";"correct";"congruent";485
"mGCP-III";"2";"2018-01-11_12:11";"3";"240";NA;"26";NA;NA;"cue_left";"target_F";"target_right";"cue_1";"200ms";"incorrect";"incongruent";392
"mGCP-III";"2";"2018-01-11_12:11";"3";"241";NA;"26";NA;NA;"cue_right";"target_E";"target_right";"cue_1";"200ms";"correct";"congruent";561
"mGCP-III";"2";"2018-01-11_12:11";"3";"242";NA;"37";NA;NA;"cue_right";"target_F";"target_left";"cue_1";"500ms";"correct";"incongruent";415
"mGCP-III";"2";"2018-01-11_12:11";"3";"243";NA;"37";NA;NA;"cue_left";"target_F";"target_left";"cue_1";"500ms";"correct";"congruent";411
"mGCP-III";"2";"2018-01-11_12:11";"3";"244";NA;"61";NA;NA;"cue_right";"target_E";"target_left";"cue_1";"200ms";"correct";"incongruent";472
"mGCP-III";"2";"2018-01-11_12:11";"3";"245";NA;"37";NA;NA;"cue_right";"target_F";"target_left";"cue_1";"200ms";"correct";"incongruent";544
"mGCP-III";"2";"2018-01-11_12:11";"3";"246";NA;"26";NA;NA;"cue_right";"target_F";"target_right";"cue_1";"500ms";"correct";"congruent";507
"mGCP-III";"2";"2018-01-11_12:11";"3";"247";NA;"61";NA;NA;"cue_right";"target_F";"target_right";"cue_1";"500ms";"correct";"congruent";574
"mGCP-III";"2";"2018-01-11_12:11";"3";"248";NA;"26";NA;NA;"cue_right";"target_E";"target_left";"cue_1";"500ms";"correct";"incongruent";498
"mGCP-III";"2";"2018-01-11_12:11";"3";"249";NA;"61";NA;NA;"cue_right";"target_E";"target_left";"cue_1";"500ms";"correct";"incongruent";435
"mGCP-III";"2";"2018-01-11_12:11";"3";"250";NA;"37";NA;NA;"cue_left";"target_E";"target_right";"cue_1";"500ms";"correct";"incongruent";450
"mGCP-III";"2";"2018-01-11_12:12";"3";"251";NA;"26";NA;NA;"cue_right";"target_E";"target_right";"cue_1";"500ms";"correct";"congruent";380
"mGCP-III";"2";"2018-01-11_12:12";"3";"252";NA;"37";NA;NA;"cue_left";"target_E";"target_left";"cue_1";"200ms";"incorrect";"congruent";523
"mGCP-III";"2";"2018-01-11_12:12";"3";"253";NA;"37";NA;NA;"cue_right";"target_F";"target_right";"cue_1";"200ms";"correct";"congruent";507
"mGCP-III";"2";"2018-01-11_12:12";"3";"254";NA;"26";NA;NA;"cue_right";"target_F";"target_left";"cue_1";"200ms";"correct";"incongruent";575
"mGCP-III";"2";"2018-01-11_12:12";"3";"255";NA;"61";NA;NA;"cue_left";"target_F";"target_left";"cue_1";"500ms";"correct";"congruent";546
"mGCP-III";"2";"2018-01-11_12:12";"3";"256";NA;"61";NA;NA;"cue_right";"target_F";"target_left";"cue_1";"500ms";"correct";"incongruent";494
"mGCP-III";"2";"2018-01-11_12:12";"3";"257";NA;"37";NA;NA;"cue_left";"target_F";"target_right";"cue_1";"500ms";"correct";"incongruent";533
"mGCP-III";"2";"2018-01-11_12:12";"3";"258";NA;"37";NA;NA;"cue_left";"target_E";"target_right";"cue_1";"200ms";"correct";"incongruent";545
"mGCP-III";"2";"2018-01-11_12:12";"3";"259";NA;"61";NA;NA;"cue_right";"target_E";"target_right";"cue_1";"500ms";"correct";"congruent";598
"mGCP-III";"2";"2018-01-11_12:12";"3";"260";NA;"61";NA;NA;"cue_left";"target_E";"target_left";"cue_1";"500ms";"correct";"congruent";495
"mGCP-III";"2";"2018-01-11_12:12";"3";"261";NA;"26";NA;NA;"cue_left";"target_F";"target_left";"cue_1";"200ms";"incorrect";"congruent";524
"mGCP-III";"2";"2018-01-11_12:12";"3";"262";NA;"26";NA;NA;"cue_right";"target_F";"target_left";"cue_1";"500ms";"correct";"incongruent";437
"mGCP-III";"2";"2018-01-11_12:12";"3";"263";NA;"37";NA;NA;"cue_right";"target_F";"target_right";"cue_1";"500ms";"correct";"congruent";630
"mGCP-III";"2";"2018-01-11_12:12";"3";"264";NA;"26";NA;NA;"cue_right";"target_F";"target_left";"cue_1";"500ms";"correct";"incongruent";369
"mGCP-III";"2";"2018-01-11_12:12";"3";"265";NA;"26";NA;NA;"cue_left";"target_F";"target_left";"cue_1";"200ms";"correct";"congruent";454
"mGCP-III";"2";"2018-01-11_12:12";"3";"266";NA;"26";NA;NA;"cue_right";"target_F";"target_left";"cue_1";"200ms";"correct";"incongruent";523
"mGCP-III";"2";"2018-01-11_12:12";"3";"267";NA;"26";NA;NA;"cue_right";"target_E";"target_right";"cue_1";"500ms";"correct";"congruent";447
"mGCP-III";"2";"2018-01-11_12:12";"3";"268";NA;"26";NA;NA;"cue_right";"target_E";"target_left";"cue_1";"200ms";"correct";"incongruent";533
"mGCP-III";"2";"2018-01-11_12:12";"3";"269";NA;"26";NA;NA;"cue_left";"target_F";"target_right";"cue_1";"500ms";"correct";"incongruent";488
"mGCP-III";"2";"2018-01-11_12:12";"3";"270";NA;"37";NA;NA;"cue_right";"target_E";"target_left";"cue_1";"200ms";"correct";"incongruent";485
"mGCP-III";"2";"2018-01-11_12:12";"3";"271";NA;"37";NA;NA;"cue_left";"target_E";"target_left";"cue_1";"500ms";"correct";"congruent";466
"mGCP-III";"2";"2018-01-11_12:12";"3";"272";NA;"37";NA;NA;"cue_left";"target_F";"target_right";"cue_1";"200ms";"correct";"incongruent";472
"mGCP-III";"2";"2018-01-11_12:12";"3";"273";NA;"37";NA;NA;"cue_right";"target_F";"target_right";"cue_1";"200ms";"correct";"congruent";481
"mGCP-III";"2";"2018-01-11_12:12";"3";"274";NA;"37";NA;NA;"cue_left";"target_E";"target_right";"cue_1";"500ms";"correct";"incongruent";635
"mGCP-III";"2";"2018-01-11_12:12";"3";"275";NA;"61";NA;NA;"cue_left";"target_F";"target_right";"cue_1";"200ms";"correct";"incongruent";531
"mGCP-III";"2";"2018-01-11_12:12";"3";"276";NA;"37";NA;NA;"cue_right";"target_E";"target_right";"cue_1";"200ms";"correct";"congruent";604
"mGCP-III";"2";"2018-01-11_12:12";"3";"277";NA;"61";NA;NA;"cue_right";"target_F";"target_right";"cue_1";"200ms";"correct";"congruent";602
"mGCP-III";"2";"2018-01-11_12:12";"3";"278";NA;"26";NA;NA;"cue_right";"target_F";"target_right";"cue_1";"200ms";"correct";"congruent";499
"mGCP-III";"2";"2018-01-11_12:12";"3";"279";NA;"26";NA;NA;"cue_left";"target_E";"target_right";"cue_1";"200ms";"correct";"incongruent";465
"mGCP-III";"2";"2018-01-11_12:12";"3";"280";NA;"26";NA;NA;"cue_left";"target_E";"target_left";"cue_1";"200ms";"correct";"congruent";561
"mGCP-III";"2";"2018-01-11_12:12";"3";"281";NA;"37";NA;NA;"cue_right";"target_F";"target_right";"cue_1";"500ms";"correct";"congruent";364
"mGCP-III";"2";"2018-01-11_12:13";"3";"282";NA;"61";NA;NA;"cue_left";"target_E";"target_right";"cue_1";"500ms";"correct";"incongruent";519
"mGCP-III";"2";"2018-01-11_12:13";"3";"283";NA;"26";NA;NA;"cue_left";"target_F";"target_left";"cue_1";"500ms";"correct";"congruent";576
"mGCP-III";"2";"2018-01-11_12:13";"3";"284";NA;"61";NA;NA;"cue_right";"target_E";"target_left";"cue_1";"200ms";"correct";"incongruent";561
"mGCP-III";"2";"2018-01-11_12:13";"3";"285";NA;"26";NA;NA;"cue_left";"target_F";"target_right";"cue_1";"500ms";"correct";"incongruent";500
"mGCP-III";"2";"2018-01-11_12:13";"3";"286";NA;"26";NA;NA;"cue_right";"target_F";"target_right";"cue_1";"500ms";"correct";"congruent";513
"mGCP-III";"2";"2018-01-11_12:13";"3";"287";NA;"61";NA;NA;"cue_right";"target_E";"target_right";"cue_1";"200ms";"correct";"congruent";662
"mGCP-III";"2";"2018-01-11_12:13";"3";"288";NA;"37";NA;NA;"cue_left";"target_F";"target_right";"cue_1";"500ms";"correct";"incongruent";520
"mGCP-III";"2";"2018-01-11_12:13";"4";"289";"61";"37";"26";"2";"cue_left";"target_F";"target_left";"cue_3";"200ms";"correct";"congruent";589
"mGCP-III";"2";"2018-01-11_12:13";"4";"290";"37";"61";"26";"5";"cue_right";"target_E";"target_right";"cue_3";"500ms";"correct";"congruent";409
"mGCP-III";"2";"2018-01-11_12:13";"4";"291";"26";"61";"37";"3";"cue_right";"target_F";"target_right";"cue_3";"500ms";"correct";"congruent";402
"mGCP-III";"2";"2018-01-11_12:13";"4";"292";"26";"61";"37";"3";"cue_left";"target_E";"target_right";"cue_3";"200ms";"correct";"incongruent";391
"mGCP-III";"2";"2018-01-11_12:13";"4";"293";"61";"26";"37";"1";"cue_left";"target_E";"target_right";"cue_3";"500ms";"correct";"incongruent";457
"mGCP-III";"2";"2018-01-11_12:13";"4";"294";"26";"37";"61";"4";"cue_left";"target_E";"target_left";"cue_3";"200ms";"correct";"congruent";570
"mGCP-III";"2";"2018-01-11_12:13";"4";"295";"37";"26";"61";"6";"cue_right";"target_E";"target_left";"cue_3";"500ms";"correct";"incongruent";513
"mGCP-III";"2";"2018-01-11_12:13";"4";"296";"61";"26";"37";"1";"cue_right";"target_E";"target_right";"cue_3";"200ms";"correct";"congruent";404
"mGCP-III";"2";"2018-01-11_12:13";"4";"297";"37";"61";"26";"5";"cue_left";"target_F";"target_left";"cue_3";"200ms";"correct";"congruent";535
"mGCP-III";"2";"2018-01-11_12:13";"4";"298";"26";"61";"37";"3";"cue_right";"target_E";"target_left";"cue_3";"500ms";"incorrect";"incongruent";409
"mGCP-III";"2";"2018-01-11_12:13";"4";"299";"37";"61";"26";"5";"cue_left";"target_E";"target_right";"cue_3";"500ms";"correct";"incongruent";545
"mGCP-III";"2";"2018-01-11_12:13";"4";"300";"37";"26";"61";"6";"cue_left";"target_F";"target_left";"cue_3";"500ms";"correct";"congruent";543
"mGCP-III";"2";"2018-01-11_12:13";"4";"301";"26";"37";"61";"4";"cue_left";"target_F";"target_left";"cue_3";"200ms";"correct";"congruent";461
"mGCP-III";"2";"2018-01-11_12:13";"4";"302";"26";"61";"37";"3";"cue_left";"target_F";"target_left";"cue_3";"200ms";"correct";"congruent";455
"mGCP-III";"2";"2018-01-11_12:13";"4";"303";"37";"26";"61";"6";"cue_right";"target_F";"target_left";"cue_3";"200ms";"correct";"incongruent";494
"mGCP-III";"2";"2018-01-11_12:13";"4";"304";"26";"61";"37";"3";"cue_right";"target_E";"target_left";"cue_3";"200ms";"correct";"incongruent";575
"mGCP-III";"2";"2018-01-11_12:13";"4";"305";"26";"37";"61";"4";"cue_right";"target_E";"target_left";"cue_3";"500ms";"correct";"incongruent";560
"mGCP-III";"2";"2018-01-11_12:13";"4";"306";"61";"26";"37";"1";"cue_left";"target_F";"target_left";"cue_3";"200ms";"correct";"congruent";644
"mGCP-III";"2";"2018-01-11_12:13";"4";"307";"61";"37";"26";"2";"cue_right";"target_F";"target_right";"cue_3";"200ms";"correct";"congruent";563
"mGCP-III";"2";"2018-01-11_12:13";"4";"308";"37";"26";"61";"6";"cue_left";"target_F";"target_right";"cue_3";"500ms";"correct";"incongruent";459
"mGCP-III";"2";"2018-01-11_12:13";"4";"309";"26";"61";"37";"3";"cue_right";"target_F";"target_left";"cue_3";"500ms";"correct";"incongruent";500
"mGCP-III";"2";"2018-01-11_12:13";"4";"310";"37";"26";"61";"6";"cue_left";"target_E";"target_left";"cue_3";"200ms";"correct";"congruent";572
"mGCP-III";"2";"2018-01-11_12:14";"4";"311";"26";"37";"61";"4";"cue_right";"target_F";"target_right";"cue_3";"200ms";"correct";"congruent";502
"mGCP-III";"2";"2018-01-11_12:14";"4";"312";"61";"37";"26";"2";"cue_right";"target_E";"target_right";"cue_3";"200ms";"correct";"congruent";412
"mGCP-III";"2";"2018-01-11_12:14";"4";"313";"61";"26";"37";"1";"cue_left";"target_E";"target_left";"cue_3";"200ms";"correct";"congruent";475
"mGCP-III";"2";"2018-01-11_12:14";"4";"314";"37";"61";"26";"5";"cue_left";"target_E";"target_left";"cue_3";"200ms";"correct";"congruent";427
"mGCP-III";"2";"2018-01-11_12:14";"4";"315";"26";"61";"37";"3";"cue_left";"target_E";"target_left";"cue_3";"500ms";"correct";"congruent";428
"mGCP-III";"2";"2018-01-11_12:14";"4";"316";"61";"37";"26";"2";"cue_right";"target_E";"target_right";"cue_3";"500ms";"correct";"congruent";531
"mGCP-III";"2";"2018-01-11_12:14";"4";"317";"26";"37";"61";"4";"cue_left";"target_F";"target_left";"cue_3";"500ms";"correct";"congruent";481
"mGCP-III";"2";"2018-01-11_12:14";"4";"318";"26";"37";"61";"4";"cue_left";"target_F";"target_right";"cue_3";"200ms";"correct";"incongruent";484
"mGCP-III";"2";"2018-01-11_12:14";"4";"319";"37";"61";"26";"5";"cue_left";"target_F";"target_right";"cue_3";"500ms";"correct";"incongruent";429
"mGCP-III";"2";"2018-01-11_12:14";"4";"320";"26";"61";"37";"3";"cue_left";"target_F";"target_right";"cue_3";"500ms";"incorrect";"incongruent";429
"mGCP-III";"2";"2018-01-11_12:14";"4";"321";"26";"37";"61";"4";"cue_right";"target_F";"target_left";"cue_3";"500ms";"correct";"incongruent";344
"mGCP-III";"2";"2018-01-11_12:14";"4";"322";"61";"26";"37";"1";"cue_right";"target_F";"target_left";"cue_3";"500ms";"correct";"incongruent";573
"mGCP-III";"2";"2018-01-11_12:14";"4";"323";"26";"37";"61";"4";"cue_right";"target_F";"target_right";"cue_3";"500ms";"correct";"congruent";560
"mGCP-III";"2";"2018-01-11_12:14";"4";"324";"61";"26";"37";"1";"cue_right";"target_E";"target_left";"cue_3";"200ms";"correct";"incongruent";511
"mGCP-III";"2";"2018-01-11_12:14";"4";"325";"37";"61";"26";"5";"cue_right";"target_F";"target_right";"cue_3";"500ms";"correct";"congruent";456
"mGCP-III";"2";"2018-01-11_12:14";"4";"326";"61";"37";"26";"2";"cue_left";"target_E";"target_left";"cue_3";"500ms";"correct";"congruent";457
"mGCP-III";"2";"2018-01-11_12:14";"4";"327";"37";"26";"61";"6";"cue_right";"target_E";"target_right";"cue_3";"500ms";"correct";"congruent";459
"mGCP-III";"2";"2018-01-11_12:14";"4";"328";"26";"37";"61";"4";"cue_right";"target_E";"target_right";"cue_3";"500ms";"correct";"congruent";454
