"experiment";"subject";"date";"block";"trial";"face_left";"face_top";"face_right";"cue_dir";"target_id";"target_pos";"cue_num";"correct_response";"rt"
"mGCP-III";123;"2018-01-05_09:22";1;1;"61_Caucasian_female_neutral_left.jpg";"26_Caucasian_female_neutral_left.jpg";"37_Caucasian_female_neutral_left.jpg";"cue_left";"target_E";"target_left";"cue_3";99;99
"mGCP-III";123;"2018-01-05_09:22";1;2;"37_Caucasian_female_neutral_right.jpg";"26_Caucasian_female_neutral_right.jpg";"61_Caucasian_female_neutral_right.jpg";"cue_right";"target_F";"target_left";"cue_3";0;0,425482893624576
"mGCP-III";123;"2018-01-05_09:22";1;3;"26_Caucasian_female_neutral_left.jpg";"61_Caucasian_female_neutral_left.jpg";"37_Caucasian_female_neutral_left.jpg";"cue_left";"target_F";"target_right";"cue_3";0;0,346273838513298
"mGCP-III";123;"2018-01-05_12:11";1;1;"26_Caucasian_female_neutral_right.jpg";"37_Caucasian_female_neutral_right.jpg";"61_Caucasian_female_neutral_right.jpg";"cue_right";"target_F";"target_right";"cue_3";1;0,768819449353032
"mGCP-III";123;"2018-01-05_12:11";1;2;"26_Caucasian_female_neutral_left.jpg";"61_Caucasian_female_neutral_left.jpg";"37_Caucasian_female_neutral_left.jpg";"cue_left";"target_E";"target_left";"cue_3";1;0,774578656957601
"mGCP-III";123;"2018-01-05_12:11";1;3;"37_Caucasian_female_neutral_left.jpg";"26_Caucasian_female_neutral_left.jpg";"61_Caucasian_female_neutral_left.jpg";"cue_left";"target_F";"target_left";"cue_3";99;99
"mGCP-III";123;"2018-01-05_12:11";1;4;"26_Caucasian_female_neutral_right.jpg";"37_Caucasian_female_neutral_right.jpg";"61_Caucasian_female_neutral_right.jpg";"cue_right";"target_E";"target_right";"cue_3";1;0,610825240160921
"mGCP-III";123;"2018-01-05_12:11";1;5;"26_Caucasian_female_neutral_left.jpg";"61_Caucasian_female_neutral_left.jpg";"37_Caucasian_female_neutral_left.jpg";"cue_left";"target_E";"target_right";"cue_3";1;0,535008973820368
"mGCP-III";123;"2018-01-05_12:11";1;6;"61_Caucasian_female_neutral_left.jpg";"37_Caucasian_female_neutral_left.jpg";"26_Caucasian_female_neutral_left.jpg";"cue_left";"target_E";"target_right";"cue_3";1;0,410235887320596
"mGCP-III";123;"2018-01-05_12:11";1;7;"26_Caucasian_female_neutral_right.jpg";"37_Caucasian_female_neutral_right.jpg";"61_Caucasian_female_neutral_right.jpg";"cue_right";"target_F";"target_left";"cue_3";99;99
"mGCP-III";123;"2018-01-05_12:11";1;8;"61_Caucasian_female_neutral_right.jpg";"26_Caucasian_female_neutral_right.jpg";"37_Caucasian_female_neutral_right.jpg";"cue_right";"target_F";"target_left";"cue_3";1;0,674820474145235
"mGCP-III";123;"2018-01-05_12:11";1;9;"37_Caucasian_female_neutral_left.jpg";"61_Caucasian_female_neutral_left.jpg";"26_Caucasian_female_neutral_left.jpg";"cue_left";"target_F";"target_left";"cue_3";1;0,783560381794814
"mGCP-III";123;"2018-01-05_12:11";1;10;"26_Caucasian_female_neutral_left.jpg";"37_Caucasian_female_neutral_left.jpg";"61_Caucasian_female_neutral_left.jpg";"cue_left";"target_F";"target_right";"cue_3";99;99
"mGCP-III";123;"2018-01-05_12:11";1;11;"37_Caucasian_female_neutral_left.jpg";"26_Caucasian_female_neutral_left.jpg";"61_Caucasian_female_neutral_left.jpg";"cue_left";"target_F";"target_right";"cue_3";1;0,370205088314833
"mGCP-III";123;"2018-01-05_12:11";1;12;"61_Caucasian_female_neutral_right.jpg";"37_Caucasian_female_neutral_right.jpg";"26_Caucasian_female_neutral_right.jpg";"cue_right";"target_F";"target_left";"cue_3";1;0,6035438603285
"mGCP-III";123;"2018-01-05_12:11";1;13;"26_Caucasian_female_neutral_right.jpg";"61_Caucasian_female_neutral_right.jpg";"37_Caucasian_female_neutral_right.jpg";"cue_right";"target_F";"target_right";"cue_3";1;0,734001882869052
"mGCP-III";123;"2018-01-05_12:11";1;14;"26_Caucasian_female_neutral_left.jpg";"37_Caucasian_female_neutral_left.jpg";"61_Caucasian_female_neutral_left.jpg";"cue_left";"target_E";"target_right";"cue_3";0;0,494172249222174
"mGCP-III";123;"2018-01-05_12:11";1;15;"26_Caucasian_female_neutral_left.jpg";"37_Caucasian_female_neutral_left.jpg";"61_Caucasian_female_neutral_left.jpg";"cue_left";"target_E";"target_left";"cue_3";1;0,690726048109354
"mGCP-III";123;"2018-01-05_12:11";1;16;"37_Caucasian_female_neutral_right.jpg";"61_Caucasian_female_neutral_right.jpg";"26_Caucasian_female_neutral_right.jpg";"cue_right";"target_F";"target_right";"cue_3";1;0,669122106017312
"mGCP-III";123;"2018-01-05_12:11";1;17;"37_Caucasian_female_neutral_right.jpg";"26_Caucasian_female_neutral_right.jpg";"61_Caucasian_female_neutral_right.jpg";"cue_right";"target_E";"target_right";"cue_3";99;99
"mGCP-III";123;"2018-01-05_12:11";1;18;"26_Caucasian_female_neutral_right.jpg";"61_Caucasian_female_neutral_right.jpg";"37_Caucasian_female_neutral_right.jpg";"cue_right";"target_E";"target_left";"cue_3";1;0,660233615708421
"mGCP-III";123;"2018-01-05_12:11";1;19;"61_Caucasian_female_neutral_left.jpg";"26_Caucasian_female_neutral_left.jpg";"37_Caucasian_female_neutral_left.jpg";"cue_left";"target_F";"target_right";"cue_3";1;0,486861634810339
"mGCP-III";123;"2018-01-05_12:12";1;20;"26_Caucasian_female_neutral_left.jpg";"37_Caucasian_female_neutral_left.jpg";"61_Caucasian_female_neutral_left.jpg";"cue_left";"target_F";"target_left";"cue_3";0;0,634742662819917
"mGCP-III";123;"2018-01-05_12:12";1;21;"26_Caucasian_female_neutral_left.jpg";"61_Caucasian_female_neutral_left.jpg";"37_Caucasian_female_neutral_left.jpg";"cue_left";"target_F";"target_right";"cue_3";1;0,65129929826071
"mGCP-III";123;"2018-01-05_12:12";1;22;"37_Caucasian_female_neutral_right.jpg";"61_Caucasian_female_neutral_right.jpg";"26_Caucasian_female_neutral_right.jpg";"cue_right";"target_E";"target_right";"cue_3";1;0,734673092476442
"mGCP-III";123;"2018-01-05_12:12";1;23;"37_Caucasian_female_neutral_right.jpg";"26_Caucasian_female_neutral_right.jpg";"61_Caucasian_female_neutral_right.jpg";"cue_right";"target_E";"target_left";"cue_3";1;0,656506209779764
"mGCP-III";123;"2018-01-05_12:12";1;24;"26_Caucasian_female_neutral_right.jpg";"61_Caucasian_female_neutral_right.jpg";"37_Caucasian_female_neutral_right.jpg";"cue_right";"target_F";"target_left";"cue_3";1;0,609453191325883
"mGCP-III";123;"2018-01-05_12:12";1;25;"26_Caucasian_female_neutral_right.jpg";"61_Caucasian_female_neutral_right.jpg";"37_Caucasian_female_neutral_right.jpg";"cue_right";"target_E";"target_right";"cue_3";1;0,544124624531833
"mGCP-III";123;"2018-01-05_12:12";1;26;"37_Caucasian_female_neutral_left.jpg";"26_Caucasian_female_neutral_left.jpg";"61_Caucasian_female_neutral_left.jpg";"cue_left";"target_E";"target_left";"cue_3";1;0,530747839715332
"mGCP-III";123;"2018-01-05_12:12";1;27;"61_Caucasian_female_neutral_right.jpg";"37_Caucasian_female_neutral_right.jpg";"26_Caucasian_female_neutral_right.jpg";"cue_right";"target_E";"target_left";"cue_3";1;0,524559595229221
"mGCP-III";123;"2018-01-05_12:12";1;28;"61_Caucasian_female_neutral_right.jpg";"26_Caucasian_female_neutral_right.jpg";"37_Caucasian_female_neutral_right.jpg";"cue_right";"target_F";"target_right";"cue_3";1;0,536483343603322
"mGCP-III";123;"2018-01-05_12:12";1;29;"37_Caucasian_female_neutral_right.jpg";"26_Caucasian_female_neutral_right.jpg";"61_Caucasian_female_neutral_right.jpg";"cue_right";"target_F";"target_right";"cue_3";0;0,508313873258885
"mGCP-III";123;"2018-01-05_12:12";1;30;"37_Caucasian_female_neutral_left.jpg";"61_Caucasian_female_neutral_left.jpg";"26_Caucasian_female_neutral_left.jpg";"cue_left";"target_E";"target_right";"cue_3";1;0,792572921447572
"mGCP-III";123;"2018-01-05_12:12";1;31;"37_Caucasian_female_neutral_left.jpg";"61_Caucasian_female_neutral_left.jpg";"26_Caucasian_female_neutral_left.jpg";"cue_left";"target_F";"target_right";"cue_3";1;0,617555114047718
"mGCP-III";123;"2018-01-05_12:12";1;32;"37_Caucasian_female_neutral_right.jpg";"61_Caucasian_female_neutral_right.jpg";"26_Caucasian_female_neutral_right.jpg";"cue_right";"target_E";"target_left";"cue_3";1;0,591542679874692
"mGCP-III";123;"2018-01-05_12:12";1;33;"61_Caucasian_female_neutral_right.jpg";"26_Caucasian_female_neutral_right.jpg";"37_Caucasian_female_neutral_right.jpg";"cue_right";"target_E";"target_right";"cue_3";1;0,591847272356972
"mGCP-III";123;"2018-01-05_12:12";1;34;"61_Caucasian_female_neutral_right.jpg";"26_Caucasian_female_neutral_right.jpg";"37_Caucasian_female_neutral_right.jpg";"cue_right";"target_E";"target_left";"cue_3";1;0,451719722783309
"mGCP-III";123;"2018-01-05_12:12";1;35;"61_Caucasian_female_neutral_left.jpg";"37_Caucasian_female_neutral_left.jpg";"26_Caucasian_female_neutral_left.jpg";"cue_left";"target_E";"target_left";"cue_3";1;0,427958349449909
"mGCP-III";123;"2018-01-05_12:12";1;36;"37_Caucasian_female_neutral_right.jpg";"61_Caucasian_female_neutral_right.jpg";"26_Caucasian_female_neutral_right.jpg";"cue_right";"target_F";"target_left";"cue_3";1;0,489488004153827
"mGCP-III";123;"2018-01-05_12:12";1;37;"61_Caucasian_female_neutral_right.jpg";"37_Caucasian_female_neutral_right.jpg";"26_Caucasian_female_neutral_right.jpg";"cue_right";"target_F";"target_right";"cue_3";1;0,664065317905624
"mGCP-III";123;"2018-01-05_12:12";1;38;"61_Caucasian_female_neutral_left.jpg";"37_Caucasian_female_neutral_left.jpg";"26_Caucasian_female_neutral_left.jpg";"cue_left";"target_F";"target_right";"cue_3";1;0,424505116243381
"mGCP-III";123;"2018-01-05_12:12";1;39;"61_Caucasian_female_neutral_left.jpg";"37_Caucasian_female_neutral_left.jpg";"26_Caucasian_female_neutral_left.jpg";"cue_left";"target_F";"target_left";"cue_3";1;0,722961492167087
"mGCP-III";123;"2018-01-05_12:12";1;40;"61_Caucasian_female_neutral_left.jpg";"26_Caucasian_female_neutral_left.jpg";"37_Caucasian_female_neutral_left.jpg";"cue_left";"target_E";"target_right";"cue_3";1;0,506184886442497
"mGCP-III";123;"2018-01-05_12:12";1;41;"26_Caucasian_female_neutral_left.jpg";"61_Caucasian_female_neutral_left.jpg";"37_Caucasian_female_neutral_left.jpg";"cue_left";"target_F";"target_left";"cue_3";0;0,699087921340833
"mGCP-III";123;"2018-01-05_12:12";1;42;"37_Caucasian_female_neutral_right.jpg";"26_Caucasian_female_neutral_right.jpg";"61_Caucasian_female_neutral_right.jpg";"cue_right";"target_F";"target_left";"cue_3";99;99
"mGCP-III";123;"2018-01-05_12:12";1;43;"61_Caucasian_female_neutral_left.jpg";"26_Caucasian_female_neutral_left.jpg";"37_Caucasian_female_neutral_left.jpg";"cue_left";"target_F";"target_left";"cue_3";1;0,685772766111768
"mGCP-III";123;"2018-01-05_12:12";1;44;"37_Caucasian_female_neutral_left.jpg";"61_Caucasian_female_neutral_left.jpg";"26_Caucasian_female_neutral_left.jpg";"cue_left";"target_E";"target_left";"cue_3";1;0,548576968474663
"mGCP-III";123;"2018-01-05_12:12";1;45;"26_Caucasian_female_neutral_right.jpg";"37_Caucasian_female_neutral_right.jpg";"61_Caucasian_female_neutral_right.jpg";"cue_right";"target_E";"target_left";"cue_3";1;0,520233671020833
"mGCP-III";123;"2018-01-05_12:12";1;46;"37_Caucasian_female_neutral_left.jpg";"26_Caucasian_female_neutral_left.jpg";"61_Caucasian_female_neutral_left.jpg";"cue_left";"target_E";"target_right";"cue_3";1;0,629142665027757
"mGCP-III";123;"2018-01-05_12:13";1;47;"61_Caucasian_female_neutral_left.jpg";"26_Caucasian_female_neutral_left.jpg";"37_Caucasian_female_neutral_left.jpg";"cue_left";"target_E";"target_left";"cue_3";1;0,586131521529751
"mGCP-III";123;"2018-01-05_12:13";1;48;"61_Caucasian_female_neutral_right.jpg";"37_Caucasian_female_neutral_right.jpg";"26_Caucasian_female_neutral_right.jpg";"cue_right";"target_E";"target_right";"cue_3";1;0,488080399765749
"mGCP-III";123;"2018-01-05_12:13";2;49;"99";"37_Caucasian_female_neutral_right.jpg";"99";"cue_right";"target_E";"target_right";"cue_1";1;0,693187281707651
"mGCP-III";123;"2018-01-05_12:13";2;50;"99";"37_Caucasian_female_neutral_left.jpg";"99";"cue_left";"target_E";"target_right";"cue_1";1;0,662508380235522
"mGCP-III";123;"2018-01-05_12:13";2;51;"99";"26_Caucasian_female_neutral_left.jpg";"99";"cue_left";"target_E";"target_right";"cue_1";1;0,474606429794221
"mGCP-III";123;"2018-01-05_12:13";2;52;"99";"37_Caucasian_female_neutral_left.jpg";"99";"cue_left";"target_F";"target_right";"cue_1";1;0,546163142251316
"mGCP-III";123;"2018-01-05_12:13";2;53;"99";"61_Caucasian_female_neutral_left.jpg";"99";"cue_left";"target_F";"target_left";"cue_1";1;0,676478152498021
"mGCP-III";123;"2018-01-05_12:13";2;54;"99";"61_Caucasian_female_neutral_left.jpg";"99";"cue_left";"target_E";"target_left";"cue_1";1;0,611145635106368
"mGCP-III";123;"2018-01-05_12:13";2;55;"99";"37_Caucasian_female_neutral_right.jpg";"99";"cue_right";"target_E";"target_right";"cue_1";1;0,509036440867931
"mGCP-III";123;"2018-01-05_12:13";2;56;"99";"26_Caucasian_female_neutral_left.jpg";"99";"cue_left";"target_F";"target_right";"cue_1";0;0,517731746076606
"mGCP-III";123;"2018-01-05_12:13";2;57;"99";"37_Caucasian_female_neutral_right.jpg";"99";"cue_right";"target_E";"target_left";"cue_1";1;0,501233974820934
"mGCP-III";123;"2018-01-05_12:13";2;58;"99";"61_Caucasian_female_neutral_left.jpg";"99";"cue_left";"target_E";"target_right";"cue_1";1;0,584921842993936
"mGCP-III";123;"2018-01-05_12:13";2;59;"99";"26_Caucasian_female_neutral_right.jpg";"99";"cue_right";"target_F";"target_right";"cue_1";1;0,500950320623815
"mGCP-III";123;"2018-01-05_12:13";2;60;"99";"37_Caucasian_female_neutral_right.jpg";"99";"cue_right";"target_F";"target_left";"cue_1";1;0,651351446387707
"mGCP-III";123;"2018-01-05_12:13";2;61;"99";"37_Caucasian_female_neutral_left.jpg";"99";"cue_left";"target_E";"target_right";"cue_1";1;0,523779743685736
"mGCP-III";123;"2018-01-05_12:13";2;62;"99";"37_Caucasian_female_neutral_left.jpg";"99";"cue_left";"target_F";"target_right";"cue_1";1;0,590946136915591
"mGCP-III";123;"2018-01-05_12:13";2;63;"99";"26_Caucasian_female_neutral_left.jpg";"99";"cue_left";"target_E";"target_right";"cue_1";1;0,454931968430174
"mGCP-III";123;"2018-01-05_12:13";2;64;"99";"61_Caucasian_female_neutral_right.jpg";"99";"cue_right";"target_F";"target_left";"cue_1";1;0,646148485466256
"mGCP-III";123;"2018-01-05_12:13";2;65;"99";"61_Caucasian_female_neutral_right.jpg";"99";"cue_right";"target_F";"target_left";"cue_1";99;99
"mGCP-III";123;"2018-01-05_12:13";2;66;"99";"37_Caucasian_female_neutral_right.jpg";"99";"cue_right";"target_F";"target_right";"cue_1";1;0,588527174899355
"mGCP-III";123;"2018-01-05_12:13";2;67;"99";"61_Caucasian_female_neutral_left.jpg";"99";"cue_left";"target_F";"target_left";"cue_1";1;0,659780875153956
"mGCP-III";123;"2018-01-05_12:13";2;68;"99";"37_Caucasian_female_neutral_right.jpg";"99";"cue_right";"target_F";"target_left";"cue_1";1;0,629730911707156
"mGCP-III";123;"2018-01-05_12:14";2;69;"99";"61_Caucasian_female_neutral_right.jpg";"99";"cue_right";"target_F";"target_right";"cue_1";1;0,449829748220509
"mGCP-III";123;"2018-01-05_12:14";2;70;"99";"37_Caucasian_female_neutral_right.jpg";"99";"cue_right";"target_F";"target_right";"cue_1";1;0,598904257232789
"mGCP-III";123;"2018-01-05_12:14";2;71;"99";"61_Caucasian_female_neutral_right.jpg";"99";"cue_right";"target_E";"target_left";"cue_1";1;0,729919316567248
"mGCP-III";123;"2018-01-05_12:14";2;72;"99";"37_Caucasian_female_neutral_left.jpg";"99";"cue_left";"target_E";"target_left";"cue_1";1;0,522616682414082
"mGCP-III";123;"2018-01-05_12:14";2;73;"99";"61_Caucasian_female_neutral_right.jpg";"99";"cue_right";"target_E";"target_right";"cue_1";0;0,651321421697503
"mGCP-III";123;"2018-01-05_12:14";2;74;"99";"37_Caucasian_female_neutral_left.jpg";"99";"cue_left";"target_F";"target_left";"cue_1";1;0,682194693450583
"mGCP-III";123;"2018-01-05_12:14";2;75;"99";"26_Caucasian_female_neutral_left.jpg";"99";"cue_left";"target_F";"target_left";"cue_1";1;0,581837202233146
"mGCP-III";123;"2018-01-05_12:14";2;76;"99";"37_Caucasian_female_neutral_left.jpg";"99";"cue_left";"target_E";"target_left";"cue_1";1;0,69236199806619
"mGCP-III";123;"2018-01-05_12:14";2;77;"99";"37_Caucasian_female_neutral_right.jpg";"99";"cue_right";"target_E";"target_left";"cue_1";1;0,625209432007978
"mGCP-III";123;"2018-01-05_12:14";2;78;"99";"26_Caucasian_female_neutral_left.jpg";"99";"cue_left";"target_E";"target_left";"cue_1";1;0,457827769743744
"mGCP-III";123;"2018-01-05_12:14";2;79;"99";"61_Caucasian_female_neutral_left.jpg";"99";"cue_left";"target_F";"target_right";"cue_1";1;0,707235276160645
"mGCP-III";123;"2018-01-05_12:14";2;80;"99";"61_Caucasian_female_neutral_left.jpg";"99";"cue_left";"target_E";"target_right";"cue_1";1;0,568717997535714
"mGCP-III";123;"2018-01-05_12:14";2;81;"99";"26_Caucasian_female_neutral_left.jpg";"99";"cue_left";"target_F";"target_right";"cue_1";1;0,480704995279666
"mGCP-III";123;"2018-01-05_12:14";2;82;"99";"26_Caucasian_female_neutral_right.jpg";"99";"cue_right";"target_E";"target_left";"cue_1";1;0,363502078616875
"mGCP-III";123;"2018-01-05_12:14";2;83;"99";"26_Caucasian_female_neutral_right.jpg";"99";"cue_right";"target_F";"target_right";"cue_1";1;0,47938548962702
"mGCP-III";123;"2018-01-05_12:14";2;84;"99";"26_Caucasian_female_neutral_right.jpg";"99";"cue_right";"target_F";"target_left";"cue_1";0;0,718513888976304
"mGCP-III";123;"2018-01-05_12:14";2;85;"99";"26_Caucasian_female_neutral_right.jpg";"99";"cue_right";"target_E";"target_right";"cue_1";1;0,611242820246844
"mGCP-III";123;"2018-01-05_12:14";2;86;"99";"61_Caucasian_female_neutral_left.jpg";"99";"cue_left";"target_F";"target_right";"cue_1";1;0,612994128197897
"mGCP-III";123;"2018-01-05_12:14";2;87;"99";"26_Caucasian_female_neutral_right.jpg";"99";"cue_right";"target_F";"target_left";"cue_1";1;0,640656339499401
"mGCP-III";123;"2018-01-05_12:14";2;88;"99";"61_Caucasian_female_neutral_left.jpg";"99";"cue_left";"target_E";"target_left";"cue_1";1;0,557780322851613
"mGCP-III";123;"2018-01-05_12:14";2;89;"99";"26_Caucasian_female_neutral_left.jpg";"99";"cue_left";"target_E";"target_left";"cue_1";1;0,632392836589133
"mGCP-III";123;"2018-01-05_12:14";2;90;"99";"61_Caucasian_female_neutral_right.jpg";"99";"cue_right";"target_E";"target_right";"cue_1";1;0,554147336646565
"mGCP-III";123;"2018-01-05_12:14";2;91;"99";"26_Caucasian_female_neutral_right.jpg";"99";"cue_right";"target_E";"target_right";"cue_1";1;0,525668138012406
"mGCP-III";123;"2018-01-05_12:14";2;92;"99";"37_Caucasian_female_neutral_left.jpg";"99";"cue_left";"target_F";"target_left";"cue_1";1;0,525966804561904
"mGCP-III";123;"2018-01-05_12:14";2;93;"99";"26_Caucasian_female_neutral_left.jpg";"99";"cue_left";"target_F";"target_left";"cue_1";1;0,586817348419572
"mGCP-III";123;"2018-01-05_12:14";2;94;"99";"61_Caucasian_female_neutral_right.jpg";"99";"cue_right";"target_E";"target_left";"cue_1";1;0,532119493494974
"mGCP-III";123;"2018-01-05_12:14";2;95;"99";"26_Caucasian_female_neutral_right.jpg";"99";"cue_right";"target_E";"target_left";"cue_1";1;0,575643031843356
"mGCP-III";123;"2018-01-05_12:14";2;96;"99";"61_Caucasian_female_neutral_right.jpg";"99";"cue_right";"target_F";"target_right";"cue_1";1;0,581074338348117
"mGCP-III";123;"2018-01-05_12:15";3;97;"26_Caucasian_female_neutral_left.jpg";"61_Caucasian_female_neutral_left.jpg";"37_Caucasian_female_neutral_left.jpg";"cue_left";"target_F";"target_right";"cue_3";0;0,406594999862136
"mGCP-III";123;"2018-01-05_12:15";3;98;"61_Caucasian_female_neutral_right.jpg";"37_Caucasian_female_neutral_right.jpg";"26_Caucasian_female_neutral_right.jpg";"cue_right";"target_E";"target_right";"cue_3";1;0,387769130757079
"mGCP-III";123;"2018-01-05_12:15";3;99;"61_Caucasian_female_neutral_right.jpg";"26_Caucasian_female_neutral_right.jpg";"37_Caucasian_female_neutral_right.jpg";"cue_right";"target_F";"target_left";"cue_3";0;0,547099833245738
"mGCP-III";123;"2018-01-05_12:15";3;100;"26_Caucasian_female_neutral_left.jpg";"61_Caucasian_female_neutral_left.jpg";"37_Caucasian_female_neutral_left.jpg";"cue_left";"target_F";"target_left";"cue_3";0;0,261305575768347
"mGCP-III";123;"2018-01-05_12:15";3;101;"26_Caucasian_female_neutral_right.jpg";"61_Caucasian_female_neutral_right.jpg";"37_Caucasian_female_neutral_right.jpg";"cue_right";"target_F";"target_right";"cue_3";0;0,334156905024429
"mGCP-III";123;"2018-01-05_12:15";3;102;"26_Caucasian_female_neutral_right.jpg";"61_Caucasian_female_neutral_right.jpg";"37_Caucasian_female_neutral_right.jpg";"cue_right";"target_F";"target_left";"cue_3";0;0,191216517050634
"mGCP-III";123;"2018-01-05_12:15";3;103;"61_Caucasian_female_neutral_left.jpg";"37_Caucasian_female_neutral_left.jpg";"26_Caucasian_female_neutral_left.jpg";"cue_left";"target_F";"target_left";"cue_3";0;0,239327115326887
"mGCP-III";123;"2018-01-05_12:15";3;104;"61_Caucasian_female_neutral_right.jpg";"37_Caucasian_female_neutral_right.jpg";"26_Caucasian_female_neutral_right.jpg";"cue_right";"target_F";"target_right";"cue_3";0;0,0212005842186045
"mGCP-III";123;"2018-01-05_12:15";3;105;"37_Caucasian_female_neutral_left.jpg";"26_Caucasian_female_neutral_left.jpg";"61_Caucasian_female_neutral_left.jpg";"cue_left";"target_E";"target_left";"cue_3";1;0,3571810934518
"mGCP-III";123;"2018-01-05_12:15";3;106;"37_Caucasian_female_neutral_right.jpg";"26_Caucasian_female_neutral_right.jpg";"61_Caucasian_female_neutral_right.jpg";"cue_right";"target_F";"target_left";"cue_3";0;0,0139539697847795
"mGCP-III";123;"2018-01-05_12:15";3;107;"61_Caucasian_female_neutral_left.jpg";"37_Caucasian_female_neutral_left.jpg";"26_Caucasian_female_neutral_left.jpg";"cue_left";"target_F";"target_right";"cue_3";0;0,410858109287801
"mGCP-III";123;"2018-01-05_12:15";3;108;"61_Caucasian_female_neutral_left.jpg";"37_Caucasian_female_neutral_left.jpg";"26_Caucasian_female_neutral_left.jpg";"cue_left";"target_E";"target_left";"cue_3";1;0,351255169865908
"mGCP-III";123;"2018-01-05_12:15";3;109;"26_Caucasian_female_neutral_right.jpg";"37_Caucasian_female_neutral_right.jpg";"61_Caucasian_female_neutral_right.jpg";"cue_right";"target_E";"target_left";"cue_3";1;0,426772374616121
"mGCP-III";123;"2018-01-05_12:15";3;110;"26_Caucasian_female_neutral_right.jpg";"37_Caucasian_female_neutral_right.jpg";"61_Caucasian_female_neutral_right.jpg";"cue_right";"target_F";"target_right";"cue_3";0;0,209337201245944
"mGCP-III";123;"2018-01-05_12:15";3;111;"61_Caucasian_female_neutral_left.jpg";"26_Caucasian_female_neutral_left.jpg";"37_Caucasian_female_neutral_left.jpg";"cue_left";"target_E";"target_right";"cue_3";1;0,0199857698753476
"mGCP-III";123;"2018-01-05_12:15";3;112;"26_Caucasian_female_neutral_left.jpg";"61_Caucasian_female_neutral_left.jpg";"37_Caucasian_female_neutral_left.jpg";"cue_left";"target_E";"target_right";"cue_3";1;0,102211910241749
"mGCP-III";123;"2018-01-05_12:15";3;113;"61_Caucasian_female_neutral_left.jpg";"26_Caucasian_female_neutral_left.jpg";"37_Caucasian_female_neutral_left.jpg";"cue_left";"target_F";"target_right";"cue_3";0;0,0922895437834086
"mGCP-III";123;"2018-01-05_12:15";3;114;"26_Caucasian_female_neutral_right.jpg";"61_Caucasian_female_neutral_right.jpg";"37_Caucasian_female_neutral_right.jpg";"cue_right";"target_E";"target_right";"cue_3";1;0,263758118016995
"mGCP-III";123;"2018-01-05_12:15";3;115;"61_Caucasian_female_neutral_right.jpg";"26_Caucasian_female_neutral_right.jpg";"37_Caucasian_female_neutral_right.jpg";"cue_right";"target_E";"target_right";"cue_3";1;0,527083643624792
"mGCP-III";123;"2018-01-05_12:15";3;116;"26_Caucasian_female_neutral_left.jpg";"37_Caucasian_female_neutral_left.jpg";"61_Caucasian_female_neutral_left.jpg";"cue_left";"target_F";"target_left";"cue_3";0;0,670826006593416
"mGCP-III";123;"2018-01-05_12:15";3;117;"26_Caucasian_female_neutral_left.jpg";"37_Caucasian_female_neutral_left.jpg";"61_Caucasian_female_neutral_left.jpg";"cue_left";"target_F";"target_right";"cue_3";0;0,787787145571201
"mGCP-III";123;"2018-01-05_12:15";3;118;"61_Caucasian_female_neutral_left.jpg";"37_Caucasian_female_neutral_left.jpg";"26_Caucasian_female_neutral_left.jpg";"cue_left";"target_E";"target_right";"cue_3";1;0,318704861740116
"mGCP-III";123;"2018-01-05_12:15";3;119;"26_Caucasian_female_neutral_left.jpg";"37_Caucasian_female_neutral_left.jpg";"61_Caucasian_female_neutral_left.jpg";"cue_left";"target_E";"target_left";"cue_3";1;0,207527029124321
"mGCP-III";123;"2018-01-05_12:15";3;120;"61_Caucasian_female_neutral_right.jpg";"26_Caucasian_female_neutral_right.jpg";"37_Caucasian_female_neutral_right.jpg";"cue_right";"target_F";"target_right";"cue_3";0;0,10403867495188
"mGCP-III";123;"2018-01-05_12:15";3;121;"37_Caucasian_female_neutral_right.jpg";"61_Caucasian_female_neutral_right.jpg";"26_Caucasian_female_neutral_right.jpg";"cue_right";"target_E";"target_right";"cue_3";1;0,292804625059944
"mGCP-III";123;"2018-01-05_12:15";3;122;"61_Caucasian_female_neutral_right.jpg";"37_Caucasian_female_neutral_right.jpg";"26_Caucasian_female_neutral_right.jpg";"cue_right";"target_E";"target_left";"cue_3";1;0,170595093091833
"mGCP-III";123;"2018-01-05_12:15";3;123;"37_Caucasian_female_neutral_left.jpg";"26_Caucasian_female_neutral_left.jpg";"61_Caucasian_female_neutral_left.jpg";"cue_left";"target_E";"target_right";"cue_3";1;0,406664530702983
"mGCP-III";123;"2018-01-05_12:15";3;124;"37_Caucasian_female_neutral_left.jpg";"61_Caucasian_female_neutral_left.jpg";"26_Caucasian_female_neutral_left.jpg";"cue_left";"target_E";"target_right";"cue_3";1;0,268874560453696
"mGCP-III";123;"2018-01-05_12:15";3;125;"37_Caucasian_female_neutral_right.jpg";"26_Caucasian_female_neutral_right.jpg";"61_Caucasian_female_neutral_right.jpg";"cue_right";"target_F";"target_right";"cue_3";0;0,130403108982136
"mGCP-III";123;"2018-01-05_12:15";3;126;"26_Caucasian_female_neutral_left.jpg";"37_Caucasian_female_neutral_left.jpg";"61_Caucasian_female_neutral_left.jpg";"cue_left";"target_E";"target_right";"cue_3";1;0,130887849518331
"mGCP-III";123;"2018-01-05_12:16";3;127;"61_Caucasian_female_neutral_right.jpg";"26_Caucasian_female_neutral_right.jpg";"37_Caucasian_female_neutral_right.jpg";"cue_right";"target_E";"target_left";"cue_3";1;0,389200438832631
"mGCP-III";123;"2018-01-05_12:16";3;128;"37_Caucasian_female_neutral_left.jpg";"61_Caucasian_female_neutral_left.jpg";"26_Caucasian_female_neutral_left.jpg";"cue_left";"target_F";"target_left";"cue_3";0;0,083971917454619
"mGCP-III";123;"2018-01-05_12:16";3;129;"26_Caucasian_female_neutral_left.jpg";"61_Caucasian_female_neutral_left.jpg";"37_Caucasian_female_neutral_left.jpg";"cue_left";"target_E";"target_left";"cue_3";1;0,0624845185229788
"mGCP-III";123;"2018-01-05_12:16";3;130;"37_Caucasian_female_neutral_right.jpg";"26_Caucasian_female_neutral_right.jpg";"61_Caucasian_female_neutral_right.jpg";"cue_right";"target_E";"target_left";"cue_3";1;0,0919177908508573
"mGCP-III";123;"2018-01-05_12:16";3;131;"37_Caucasian_female_neutral_left.jpg";"26_Caucasian_female_neutral_left.jpg";"61_Caucasian_female_neutral_left.jpg";"cue_left";"target_F";"target_right";"cue_3";0;0,0790577465522802
"mGCP-III";123;"2018-01-05_12:16";3;132;"26_Caucasian_female_neutral_right.jpg";"37_Caucasian_female_neutral_right.jpg";"61_Caucasian_female_neutral_right.jpg";"cue_right";"target_E";"target_right";"cue_3";1;0,0917143341357587
"mGCP-III";123;"2018-01-05_12:16";3;133;"26_Caucasian_female_neutral_right.jpg";"37_Caucasian_female_neutral_right.jpg";"61_Caucasian_female_neutral_right.jpg";"cue_right";"target_F";"target_left";"cue_3";0;0,306141508684959
"mGCP-III";123;"2018-01-05_12:16";3;134;"37_Caucasian_female_neutral_right.jpg";"26_Caucasian_female_neutral_right.jpg";"61_Caucasian_female_neutral_right.jpg";"cue_right";"target_E";"target_right";"cue_3";1;0,270492732641287
"mGCP-III";123;"2018-01-05_12:16";3;135;"37_Caucasian_female_neutral_left.jpg";"26_Caucasian_female_neutral_left.jpg";"61_Caucasian_female_neutral_left.jpg";"cue_left";"target_F";"target_left";"cue_3";0;0,338189298505313
"mGCP-III";123;"2018-01-05_12:16";3;136;"37_Caucasian_female_neutral_right.jpg";"61_Caucasian_female_neutral_right.jpg";"26_Caucasian_female_neutral_right.jpg";"cue_right";"target_F";"target_right";"cue_3";0;0,258774416288361
"mGCP-III";123;"2018-01-05_12:16";3;137;"37_Caucasian_female_neutral_right.jpg";"61_Caucasian_female_neutral_right.jpg";"26_Caucasian_female_neutral_right.jpg";"cue_right";"target_F";"target_left";"cue_3";0;0,111147017814801
"mGCP-III";123;"2018-01-05_12:16";3;138;"37_Caucasian_female_neutral_right.jpg";"61_Caucasian_female_neutral_right.jpg";"26_Caucasian_female_neutral_right.jpg";"cue_right";"target_E";"target_left";"cue_3";1;0,145386609234265
"mGCP-III";123;"2018-01-05_12:16";3;139;"61_Caucasian_female_neutral_left.jpg";"26_Caucasian_female_neutral_left.jpg";"37_Caucasian_female_neutral_left.jpg";"cue_left";"target_E";"target_left";"cue_3";1;0,234504993786686
"mGCP-III";123;"2018-01-05_12:16";3;140;"61_Caucasian_female_neutral_right.jpg";"37_Caucasian_female_neutral_right.jpg";"26_Caucasian_female_neutral_right.jpg";"cue_right";"target_F";"target_left";"cue_3";0;0,192172961120377
"mGCP-III";123;"2018-01-05_12:16";3;141;"37_Caucasian_female_neutral_left.jpg";"61_Caucasian_female_neutral_left.jpg";"26_Caucasian_female_neutral_left.jpg";"cue_left";"target_F";"target_right";"cue_3";0;0,169226994883502
"mGCP-III";123;"2018-01-05_12:16";3;142;"61_Caucasian_female_neutral_left.jpg";"26_Caucasian_female_neutral_left.jpg";"37_Caucasian_female_neutral_left.jpg";"cue_left";"target_F";"target_left";"cue_3";0;0,220458974625217
"mGCP-III";123;"2018-01-05_12:16";3;143;"37_Caucasian_female_neutral_left.jpg";"61_Caucasian_female_neutral_left.jpg";"26_Caucasian_female_neutral_left.jpg";"cue_left";"target_E";"target_left";"cue_3";1;0,382984935116838
"mGCP-III";123;"2018-01-05_12:16";3;144;"26_Caucasian_female_neutral_right.jpg";"61_Caucasian_female_neutral_right.jpg";"37_Caucasian_female_neutral_right.jpg";"cue_right";"target_E";"target_left";"cue_3";1;0,282523542715353
"mGCP-III";123;"2018-01-05_12:16";4;145;"99";"61_Caucasian_female_neutral_left.jpg";"99";"cue_left";"target_F";"target_right";"cue_1";0;0,470733246140298
"mGCP-III";123;"2018-01-05_12:16";4;146;"99";"61_Caucasian_female_neutral_left.jpg";"99";"cue_left";"target_E";"target_right";"cue_1";99;99
"mGCP-III";123;"2018-01-05_12:16";4;147;"99";"37_Caucasian_female_neutral_left.jpg";"99";"cue_left";"target_F";"target_left";"cue_1";1;0,484284648176981
"mGCP-III";123;"2018-01-05_12:16";4;148;"99";"26_Caucasian_female_neutral_right.jpg";"99";"cue_right";"target_E";"target_right";"cue_1";0;0,311283630115213
"mGCP-III";123;"2018-01-05_12:16";4;149;"99";"26_Caucasian_female_neutral_left.jpg";"99";"cue_left";"target_E";"target_left";"cue_1";0;0,100813392273267
"mGCP-III";123;"2018-01-05_12:16";4;150;"99";"37_Caucasian_female_neutral_left.jpg";"99";"cue_left";"target_E";"target_right";"cue_1";0;0,269833769940306
"mGCP-III";123;"2018-01-05_12:16";4;151;"99";"26_Caucasian_female_neutral_left.jpg";"99";"cue_left";"target_F";"target_right";"cue_1";1;0,299933906193473
"mGCP-III";123;"2018-01-05_12:16";4;152;"99";"26_Caucasian_female_neutral_right.jpg";"99";"cue_right";"target_E";"target_right";"cue_1";0;0,314881455851719
"mGCP-III";123;"2018-01-05_12:16";4;153;"99";"61_Caucasian_female_neutral_left.jpg";"99";"cue_left";"target_F";"target_left";"cue_1";1;0,254568985852529
"mGCP-III";123;"2018-01-05_12:16";4;154;"99";"26_Caucasian_female_neutral_right.jpg";"99";"cue_right";"target_F";"target_left";"cue_1";1;0,243717829653178
"mGCP-III";123;"2018-01-05_12:16";4;155;"99";"37_Caucasian_female_neutral_left.jpg";"99";"cue_left";"target_E";"target_left";"cue_1";0;0,143694560523727
"mGCP-III";123;"2018-01-05_12:16";4;156;"99";"26_Caucasian_female_neutral_right.jpg";"99";"cue_right";"target_F";"target_right";"cue_1";1;0,220808999190922
"mGCP-III";123;"2018-01-05_12:17";4;157;"99";"61_Caucasian_female_neutral_right.jpg";"99";"cue_right";"target_F";"target_right";"cue_1";1;0,291067539335927
"mGCP-III";123;"2018-01-05_12:17";4;158;"99";"61_Caucasian_female_neutral_right.jpg";"99";"cue_right";"target_F";"target_left";"cue_1";1;0,216239717046847
"mGCP-III";123;"2018-01-05_12:17";4;159;"99";"37_Caucasian_female_neutral_right.jpg";"99";"cue_right";"target_F";"target_right";"cue_1";1;0,249069333702209
"mGCP-III";123;"2018-01-05_12:17";4;160;"99";"26_Caucasian_female_neutral_right.jpg";"99";"cue_right";"target_E";"target_left";"cue_1";0;0,22759852737363
"mGCP-III";123;"2018-01-05_12:17";4;161;"99";"26_Caucasian_female_neutral_left.jpg";"99";"cue_left";"target_F";"target_right";"cue_1";1;0,253512986266287
"mGCP-III";123;"2018-01-05_12:17";4;162;"99";"26_Caucasian_female_neutral_left.jpg";"99";"cue_left";"target_E";"target_left";"cue_1";0;0,243585484015057
"mGCP-III";123;"2018-01-05_12:17";4;163;"99";"61_Caucasian_female_neutral_right.jpg";"99";"cue_right";"target_F";"target_right";"cue_1";1;0,204790437608608
"mGCP-III";123;"2018-01-05_12:17";4;164;"99";"26_Caucasian_female_neutral_left.jpg";"99";"cue_left";"target_F";"target_left";"cue_1";1;0,249292148422683
"mGCP-III";123;"2018-01-05_12:17";4;165;"99";"61_Caucasian_female_neutral_right.jpg";"99";"cue_right";"target_E";"target_right";"cue_1";0;0,0536422504083021
"mGCP-III";123;"2018-01-05_12:17";4;166;"99";"37_Caucasian_female_neutral_right.jpg";"99";"cue_right";"target_E";"target_left";"cue_1";0;0,350016256794333
"mGCP-III";123;"2018-01-05_12:17";4;167;"99";"61_Caucasian_female_neutral_right.jpg";"99";"cue_right";"target_E";"target_left";"cue_1";0;0,179391138997744
"mGCP-III";123;"2018-01-05_12:17";4;168;"99";"37_Caucasian_female_neutral_right.jpg";"99";"cue_right";"target_E";"target_right";"cue_1";0;0,229775316634914
"mGCP-III";123;"2018-01-05_12:17";4;169;"99";"26_Caucasian_female_neutral_left.jpg";"99";"cue_left";"target_E";"target_right";"cue_1";0;0,163777910609497
"mGCP-III";123;"2018-01-05_12:17";4;170;"99";"37_Caucasian_female_neutral_right.jpg";"99";"cue_right";"target_E";"target_left";"cue_1";0;0,224435664422344
"mGCP-III";123;"2018-01-05_12:17";4;171;"99";"61_Caucasian_female_neutral_right.jpg";"99";"cue_right";"target_E";"target_right";"cue_1";0;0,30570457057911
"mGCP-III";123;"2018-01-05_12:17";4;172;"99";"37_Caucasian_female_neutral_left.jpg";"99";"cue_left";"target_E";"target_left";"cue_1";0;0,172054055481567
"mGCP-III";123;"2018-01-05_12:17";4;173;"99";"61_Caucasian_female_neutral_left.jpg";"99";"cue_left";"target_E";"target_left";"cue_1";0;0,122148297421518
"mGCP-III";123;"2018-01-05_12:17";4;174;"99";"37_Caucasian_female_neutral_left.jpg";"99";"cue_left";"target_F";"target_right";"cue_1";1;0,301632275906741
"mGCP-III";123;"2018-01-05_12:17";4;175;"99";"61_Caucasian_female_neutral_right.jpg";"99";"cue_right";"target_F";"target_left";"cue_1";1;0,0179338200687198
"mGCP-III";123;"2018-01-05_12:17";4;176;"99";"61_Caucasian_female_neutral_left.jpg";"99";"cue_left";"target_E";"target_right";"cue_1";0;0,198824612816679
"mGCP-III";123;"2018-01-05_12:17";4;177;"99";"61_Caucasian_female_neutral_left.jpg";"99";"cue_left";"target_F";"target_left";"cue_1";1;0,269293325705803
"mGCP-III";123;"2018-01-05_12:17";4;178;"99";"26_Caucasian_female_neutral_right.jpg";"99";"cue_right";"target_E";"target_left";"cue_1";0;0,30692333553452
"mGCP-III";123;"2018-01-05_12:17";4;179;"99";"26_Caucasian_female_neutral_left.jpg";"99";"cue_left";"target_F";"target_left";"cue_1";1;0,216949247624143
"mGCP-III";123;"2018-01-05_12:17";4;180;"99";"26_Caucasian_female_neutral_right.jpg";"99";"cue_right";"target_F";"target_right";"cue_1";1;0,311968271809747
"mGCP-III";123;"2018-01-05_12:17";4;181;"99";"37_Caucasian_female_neutral_right.jpg";"99";"cue_right";"target_F";"target_left";"cue_1";1;0,285452134150546
"mGCP-III";123;"2018-01-05_12:17";4;182;"99";"37_Caucasian_female_neutral_right.jpg";"99";"cue_right";"target_E";"target_right";"cue_1";0;0,129260590911144
"mGCP-III";123;"2018-01-05_12:17";4;183;"99";"61_Caucasian_female_neutral_right.jpg";"99";"cue_right";"target_E";"target_left";"cue_1";0;0,508519700335455
"mGCP-III";123;"2018-01-05_12:17";4;184;"99";"37_Caucasian_female_neutral_left.jpg";"99";"cue_left";"target_E";"target_right";"cue_1";0;0,0426338597026188
"mGCP-III";123;"2018-01-05_12:17";4;185;"99";"37_Caucasian_female_neutral_left.jpg";"99";"cue_left";"target_F";"target_right";"cue_1";1;0,0170555982040241
"mGCP-III";123;"2018-01-05_12:17";4;186;"99";"37_Caucasian_female_neutral_right.jpg";"99";"cue_right";"target_F";"target_left";"cue_1";1;0,06743819557596
"mGCP-III";123;"2018-01-05_12:17";4;187;"99";"61_Caucasian_female_neutral_left.jpg";"99";"cue_left";"target_F";"target_right";"cue_1";1;0,221102925002924
"mGCP-III";123;"2018-01-05_12:17";4;188;"99";"37_Caucasian_female_neutral_right.jpg";"99";"cue_right";"target_F";"target_right";"cue_1";1;0,278474951701355
"mGCP-III";123;"2018-01-05_12:17";4;189;"99";"61_Caucasian_female_neutral_left.jpg";"99";"cue_left";"target_E";"target_left";"cue_1";0;0,408570702784345
"mGCP-III";123;"2018-01-05_12:17";4;190;"99";"26_Caucasian_female_neutral_left.jpg";"99";"cue_left";"target_E";"target_right";"cue_1";0;0,426151337829651
"mGCP-III";123;"2018-01-05_12:18";4;191;"99";"37_Caucasian_female_neutral_left.jpg";"99";"cue_left";"target_F";"target_left";"cue_1";1;0,495353878388414
"mGCP-III";123;"2018-01-05_12:18";4;192;"99";"26_Caucasian_female_neutral_right.jpg";"99";"cue_right";"target_F";"target_left";"cue_1";1;0,313465555169387
