experiment,subject,date,block,trial,face_left,face_top,face_right,cue_dir,target_id,target_pos,cue_num,isi,correct_response,rt
mGCP-III,17,2018-01-18_10:04,1,1,61_Caucasian_female_neutral_right.jpg,37_Caucasian_female_neutral_right.jpg,26_Caucasian_female_neutral_right.jpg,cue_right,target_F,target_right,cue_3,200ms,99,99
mGCP-III,17,2018-01-18_10:04,1,2,61_Caucasian_female_neutral_right.jpg,37_Caucasian_female_neutral_right.jpg,26_Caucasian_female_neutral_right.jpg,cue_right,target_F,target_left,cue_3,500ms,99,99
mGCP-III,17,2018-01-18_10:04,1,3,37_Caucasian_female_neutral_left.jpg,61_Caucasian_female_neutral_left.jpg,26_Caucasian_female_neutral_left.jpg,cue_left,target_F,target_right,cue_3,500ms,correct,0.5763937091924163
mGCP-III,17,2018-01-18_10:04,1,4,61_Caucasian_female_neutral_left.jpg,26_Caucasian_female_neutral_left.jpg,37_Caucasian_female_neutral_left.jpg,cue_left,target_F,target_left,cue_3,200ms,correct,0.5393305834395505
mGCP-III,17,2018-01-18_10:04,1,5,61_Caucasian_female_neutral_left.jpg,26_Caucasian_female_neutral_left.jpg,37_Caucasian_female_neutral_left.jpg,cue_left,target_E,target_right,cue_3,200ms,correct,0.5266783315273642
mGCP-III,17,2018-01-18_10:04,1,6,37_Caucasian_female_neutral_left.jpg,26_Caucasian_female_neutral_left.jpg,61_Caucasian_female_neutral_left.jpg,cue_left,target_F,target_left,cue_3,500ms,incorrect,0.4932240960879426
mGCP-III,17,2018-01-18_10:04,1,7,26_Caucasian_female_neutral_right.jpg,37_Caucasian_female_neutral_right.jpg,61_Caucasian_female_neutral_right.jpg,cue_right,target_F,target_right,cue_3,500ms,correct,0.5299747278904761
mGCP-III,17,2018-01-18_10:04,1,8,26_Caucasian_female_neutral_left.jpg,37_Caucasian_female_neutral_left.jpg,61_Caucasian_female_neutral_left.jpg,cue_left,target_E,target_right,cue_3,500ms,correct,0.546527820850315
mGCP-III,17,2018-01-18_10:04,1,9,37_Caucasian_female_neutral_right.jpg,26_Caucasian_female_neutral_right.jpg,61_Caucasian_female_neutral_right.jpg,cue_right,target_F,target_left,cue_3,500ms,correct,0.617877577433319
mGCP-III,17,2018-01-18_10:04,1,10,61_Caucasian_female_neutral_right.jpg,26_Caucasian_female_neutral_right.jpg,37_Caucasian_female_neutral_right.jpg,cue_right,target_E,target_right,cue_3,500ms,correct,0.5519595266996475
mGCP-III,17,2018-01-18_10:04,1,11,26_Caucasian_female_neutral_left.jpg,61_Caucasian_female_neutral_left.jpg,37_Caucasian_female_neutral_left.jpg,cue_left,target_E,target_right,cue_3,500ms,correct,0.5065973359396594
mGCP-III,17,2018-01-18_10:04,1,12,37_Caucasian_female_neutral_left.jpg,26_Caucasian_female_neutral_left.jpg,61_Caucasian_female_neutral_left.jpg,cue_left,target_E,target_left,cue_3,500ms,correct,0.6149734775199249
mGCP-III,17,2018-01-18_10:04,1,13,61_Caucasian_female_neutral_left.jpg,37_Caucasian_female_neutral_left.jpg,26_Caucasian_female_neutral_left.jpg,cue_left,target_E,target_left,cue_3,200ms,correct,0.6889843709568595
mGCP-III,17,2018-01-18_10:04,1,14,26_Caucasian_female_neutral_left.jpg,37_Caucasian_female_neutral_left.jpg,61_Caucasian_female_neutral_left.jpg,cue_left,target_E,target_right,cue_3,200ms,correct,0.48307772171028773
mGCP-III,17,2018-01-18_10:04,1,15,37_Caucasian_female_neutral_right.jpg,26_Caucasian_female_neutral_right.jpg,61_Caucasian_female_neutral_right.jpg,cue_right,target_F,target_right,cue_3,500ms,incorrect,0.4178127082714127
mGCP-III,17,2018-01-18_10:04,1,16,37_Caucasian_female_neutral_right.jpg,61_Caucasian_female_neutral_right.jpg,26_Caucasian_female_neutral_right.jpg,cue_right,target_F,target_left,cue_3,500ms,correct,0.7035546483184589
mGCP-III,17,2018-01-18_10:04,1,17,61_Caucasian_female_neutral_right.jpg,26_Caucasian_female_neutral_right.jpg,37_Caucasian_female_neutral_right.jpg,cue_right,target_E,target_left,cue_3,500ms,correct,0.7191402347216354
mGCP-III,17,2018-01-18_10:05,1,18,61_Caucasian_female_neutral_right.jpg,37_Caucasian_female_neutral_right.jpg,26_Caucasian_female_neutral_right.jpg,cue_right,target_F,target_left,cue_3,200ms,correct,0.776082084378686
mGCP-III,17,2018-01-18_10:05,1,19,26_Caucasian_female_neutral_right.jpg,37_Caucasian_female_neutral_right.jpg,61_Caucasian_female_neutral_right.jpg,cue_right,target_F,target_left,cue_3,500ms,correct,0.6784421445699991
mGCP-III,17,2018-01-18_10:05,1,20,61_Caucasian_female_neutral_left.jpg,26_Caucasian_female_neutral_left.jpg,37_Caucasian_female_neutral_left.jpg,cue_left,target_F,target_right,cue_3,200ms,correct,0.6355269671221322
mGCP-III,17,2018-01-18_10:05,1,21,26_Caucasian_female_neutral_left.jpg,37_Caucasian_female_neutral_left.jpg,61_Caucasian_female_neutral_left.jpg,cue_left,target_F,target_right,cue_3,200ms,correct,0.5543488609773704
mGCP-III,17,2018-01-18_10:05,1,22,61_Caucasian_female_neutral_left.jpg,26_Caucasian_female_neutral_left.jpg,37_Caucasian_female_neutral_left.jpg,cue_left,target_E,target_left,cue_3,200ms,correct,0.556611775451529
mGCP-III,17,2018-01-18_10:05,1,23,26_Caucasian_female_neutral_right.jpg,37_Caucasian_female_neutral_right.jpg,61_Caucasian_female_neutral_right.jpg,cue_right,target_E,target_right,cue_3,200ms,correct,0.7145571217997713
mGCP-III,17,2018-01-18_10:05,1,24,37_Caucasian_female_neutral_right.jpg,61_Caucasian_female_neutral_right.jpg,26_Caucasian_female_neutral_right.jpg,cue_right,target_E,target_left,cue_3,500ms,correct,0.37019431908902334
mGCP-III,17,2018-01-18_10:05,1,25,37_Caucasian_female_neutral_left.jpg,26_Caucasian_female_neutral_left.jpg,61_Caucasian_female_neutral_left.jpg,cue_left,target_E,target_right,cue_3,200ms,correct,0.4842834505816427
mGCP-III,17,2018-01-18_10:05,1,26,26_Caucasian_female_neutral_right.jpg,37_Caucasian_female_neutral_right.jpg,61_Caucasian_female_neutral_right.jpg,cue_right,target_E,target_right,cue_3,500ms,correct,0.44380896545499127
mGCP-III,17,2018-01-18_10:05,1,27,61_Caucasian_female_neutral_left.jpg,26_Caucasian_female_neutral_left.jpg,37_Caucasian_female_neutral_left.jpg,cue_left,target_F,target_left,cue_3,500ms,correct,0.5112448439485888
mGCP-III,17,2018-01-18_10:05,1,28,61_Caucasian_female_neutral_right.jpg,26_Caucasian_female_neutral_right.jpg,37_Caucasian_female_neutral_right.jpg,cue_right,target_F,target_right,cue_3,200ms,correct,0.5751563753710798
mGCP-III,17,2018-01-18_10:05,1,29,26_Caucasian_female_neutral_left.jpg,37_Caucasian_female_neutral_left.jpg,61_Caucasian_female_neutral_left.jpg,cue_left,target_F,target_right,cue_3,500ms,correct,0.47203258154331706
mGCP-III,17,2018-01-18_10:05,1,30,61_Caucasian_female_neutral_left.jpg,26_Caucasian_female_neutral_left.jpg,37_Caucasian_female_neutral_left.jpg,cue_left,target_E,target_right,cue_3,500ms,correct,0.45608472339154105
mGCP-III,17,2018-01-18_10:05,1,31,61_Caucasian_female_neutral_right.jpg,26_Caucasian_female_neutral_right.jpg,37_Caucasian_female_neutral_right.jpg,cue_right,target_F,target_left,cue_3,500ms,correct,0.655373691011846
mGCP-III,17,2018-01-18_10:05,1,32,26_Caucasian_female_neutral_left.jpg,61_Caucasian_female_neutral_left.jpg,37_Caucasian_female_neutral_left.jpg,cue_left,target_F,target_left,cue_3,200ms,correct,0.6183125405677856
mGCP-III,17,2018-01-18_10:05,1,33,37_Caucasian_female_neutral_left.jpg,26_Caucasian_female_neutral_left.jpg,61_Caucasian_female_neutral_left.jpg,cue_left,target_E,target_left,cue_3,200ms,correct,0.5885454176968778
mGCP-III,17,2018-01-18_10:05,1,34,37_Caucasian_female_neutral_left.jpg,26_Caucasian_female_neutral_left.jpg,61_Caucasian_female_neutral_left.jpg,cue_left,target_F,target_left,cue_3,200ms,correct,0.6357197573215672
mGCP-III,17,2018-01-18_10:05,1,35,37_Caucasian_female_neutral_right.jpg,26_Caucasian_female_neutral_right.jpg,61_Caucasian_female_neutral_right.jpg,cue_right,target_E,target_right,cue_3,200ms,correct,0.4098956681073105
mGCP-III,17,2018-01-18_10:05,1,36,37_Caucasian_female_neutral_right.jpg,61_Caucasian_female_neutral_right.jpg,26_Caucasian_female_neutral_right.jpg,cue_right,target_E,target_right,cue_3,200ms,correct,0.7434211332038103
mGCP-III,17,2018-01-18_10:05,1,37,61_Caucasian_female_neutral_right.jpg,26_Caucasian_female_neutral_right.jpg,37_Caucasian_female_neutral_right.jpg,cue_right,target_E,target_left,cue_3,200ms,correct,0.6099557965253553
mGCP-III,17,2018-01-18_10:05,1,38,37_Caucasian_female_neutral_left.jpg,61_Caucasian_female_neutral_left.jpg,26_Caucasian_female_neutral_left.jpg,cue_left,target_E,target_left,cue_3,200ms,correct,0.5163162533599461
mGCP-III,17,2018-01-18_10:05,1,39,37_Caucasian_female_neutral_left.jpg,61_Caucasian_female_neutral_left.jpg,26_Caucasian_female_neutral_left.jpg,cue_left,target_E,target_left,cue_3,500ms,correct,0.5408416951477193
mGCP-III,17,2018-01-18_10:05,1,40,37_Caucasian_female_neutral_right.jpg,26_Caucasian_female_neutral_right.jpg,61_Caucasian_female_neutral_right.jpg,cue_right,target_E,target_right,cue_3,500ms,correct,0.34520467958736845
mGCP-III,17,2018-01-18_10:05,1,41,37_Caucasian_female_neutral_right.jpg,26_Caucasian_female_neutral_right.jpg,61_Caucasian_female_neutral_right.jpg,cue_right,target_F,target_left,cue_3,200ms,correct,0.44138289042257384
mGCP-III,17,2018-01-18_10:05,1,42,26_Caucasian_female_neutral_left.jpg,37_Caucasian_female_neutral_left.jpg,61_Caucasian_female_neutral_left.jpg,cue_left,target_E,target_left,cue_3,500ms,correct,0.48528374727266055
mGCP-III,17,2018-01-18_10:05,1,43,61_Caucasian_female_neutral_right.jpg,26_Caucasian_female_neutral_right.jpg,37_Caucasian_female_neutral_right.jpg,cue_right,target_F,target_right,cue_3,500ms,correct,0.415850830952877
mGCP-III,17,2018-01-18_10:05,1,44,26_Caucasian_female_neutral_right.jpg,61_Caucasian_female_neutral_right.jpg,37_Caucasian_female_neutral_right.jpg,cue_right,target_E,target_right,cue_3,200ms,correct,0.45910023075521167
mGCP-III,17,2018-01-18_10:05,1,45,26_Caucasian_female_neutral_right.jpg,61_Caucasian_female_neutral_right.jpg,37_Caucasian_female_neutral_right.jpg,cue_right,target_E,target_right,cue_3,500ms,correct,0.4130964594951365
mGCP-III,17,2018-01-18_10:05,1,46,61_Caucasian_female_neutral_right.jpg,26_Caucasian_female_neutral_right.jpg,37_Caucasian_female_neutral_right.jpg,cue_right,target_E,target_right,cue_3,200ms,correct,0.3578079438248096
mGCP-III,17,2018-01-18_10:05,1,47,26_Caucasian_female_neutral_left.jpg,61_Caucasian_female_neutral_left.jpg,37_Caucasian_female_neutral_left.jpg,cue_left,target_F,target_right,cue_3,500ms,incorrect,0.6156928852124111
mGCP-III,17,2018-01-18_10:05,1,48,37_Caucasian_female_neutral_left.jpg,26_Caucasian_female_neutral_left.jpg,61_Caucasian_female_neutral_left.jpg,cue_left,target_E,target_right,cue_3,500ms,correct,0.4456112377729369
mGCP-III,17,2018-01-18_10:06,1,49,26_Caucasian_female_neutral_left.jpg,37_Caucasian_female_neutral_left.jpg,61_Caucasian_female_neutral_left.jpg,cue_left,target_E,target_left,cue_3,200ms,incorrect,0.4287895027309787
mGCP-III,17,2018-01-18_10:06,1,50,26_Caucasian_female_neutral_right.jpg,37_Caucasian_female_neutral_right.jpg,61_Caucasian_female_neutral_right.jpg,cue_right,target_E,target_left,cue_3,200ms,correct,0.6524454923246594
mGCP-III,17,2018-01-18_10:06,1,51,37_Caucasian_female_neutral_right.jpg,26_Caucasian_female_neutral_right.jpg,61_Caucasian_female_neutral_right.jpg,cue_right,target_E,target_left,cue_3,500ms,correct,0.553175132117758
mGCP-III,17,2018-01-18_10:06,1,52,26_Caucasian_female_neutral_left.jpg,61_Caucasian_female_neutral_left.jpg,37_Caucasian_female_neutral_left.jpg,cue_left,target_E,target_left,cue_3,500ms,correct,0.5718603740688195
mGCP-III,17,2018-01-18_10:06,1,53,61_Caucasian_female_neutral_left.jpg,37_Caucasian_female_neutral_left.jpg,26_Caucasian_female_neutral_left.jpg,cue_left,target_E,target_left,cue_3,500ms,correct,0.47709332428348716
mGCP-III,17,2018-01-18_10:06,1,54,61_Caucasian_female_neutral_right.jpg,37_Caucasian_female_neutral_right.jpg,26_Caucasian_female_neutral_right.jpg,cue_right,target_E,target_right,cue_3,200ms,correct,0.45669983474545006
mGCP-III,17,2018-01-18_10:06,1,55,37_Caucasian_female_neutral_right.jpg,26_Caucasian_female_neutral_right.jpg,61_Caucasian_female_neutral_right.jpg,cue_right,target_F,target_right,cue_3,200ms,correct,0.5720997815706141
mGCP-III,17,2018-01-18_10:06,1,56,37_Caucasian_female_neutral_left.jpg,61_Caucasian_female_neutral_left.jpg,26_Caucasian_female_neutral_left.jpg,cue_left,target_E,target_right,cue_3,500ms,correct,0.6782351321426177
mGCP-III,17,2018-01-18_10:06,1,57,26_Caucasian_female_neutral_left.jpg,61_Caucasian_female_neutral_left.jpg,37_Caucasian_female_neutral_left.jpg,cue_left,target_F,target_left,cue_3,500ms,correct,0.5483711796032367
mGCP-III,17,2018-01-18_10:06,1,58,26_Caucasian_female_neutral_right.jpg,61_Caucasian_female_neutral_right.jpg,37_Caucasian_female_neutral_right.jpg,cue_right,target_F,target_left,cue_3,200ms,99,99
mGCP-III,17,2018-01-18_10:06,1,59,61_Caucasian_female_neutral_left.jpg,37_Caucasian_female_neutral_left.jpg,26_Caucasian_female_neutral_left.jpg,cue_left,target_F,target_left,cue_3,500ms,correct,0.6887342967838777
mGCP-III,17,2018-01-18_10:06,1,60,26_Caucasian_female_neutral_right.jpg,61_Caucasian_female_neutral_right.jpg,37_Caucasian_female_neutral_right.jpg,cue_right,target_F,target_left,cue_3,500ms,correct,0.4304768120400695
mGCP-III,17,2018-01-18_10:06,1,61,61_Caucasian_female_neutral_left.jpg,37_Caucasian_female_neutral_left.jpg,26_Caucasian_female_neutral_left.jpg,cue_left,target_F,target_right,cue_3,500ms,correct,0.4478385966767746
mGCP-III,17,2018-01-18_10:06,1,62,61_Caucasian_female_neutral_left.jpg,37_Caucasian_female_neutral_left.jpg,26_Caucasian_female_neutral_left.jpg,cue_left,target_E,target_right,cue_3,200ms,correct,0.6128073532072449
mGCP-III,17,2018-01-18_10:06,1,63,26_Caucasian_female_neutral_right.jpg,61_Caucasian_female_neutral_right.jpg,37_Caucasian_female_neutral_right.jpg,cue_right,target_E,target_left,cue_3,200ms,correct,0.716082850798557
mGCP-III,17,2018-01-18_10:06,1,64,37_Caucasian_female_neutral_right.jpg,26_Caucasian_female_neutral_right.jpg,61_Caucasian_female_neutral_right.jpg,cue_right,target_E,target_left,cue_3,200ms,correct,0.46912571619759547
mGCP-III,17,2018-01-18_10:06,1,65,26_Caucasian_female_neutral_left.jpg,37_Caucasian_female_neutral_left.jpg,61_Caucasian_female_neutral_left.jpg,cue_left,target_F,target_left,cue_3,200ms,correct,0.6009989534804845
mGCP-III,17,2018-01-18_10:06,1,66,26_Caucasian_female_neutral_right.jpg,61_Caucasian_female_neutral_right.jpg,37_Caucasian_female_neutral_right.jpg,cue_right,target_E,target_left,cue_3,500ms,correct,0.5480258955167301
mGCP-III,17,2018-01-18_10:06,1,67,26_Caucasian_female_neutral_left.jpg,61_Caucasian_female_neutral_left.jpg,37_Caucasian_female_neutral_left.jpg,cue_left,target_F,target_right,cue_3,200ms,correct,0.49835081416313187
mGCP-III,17,2018-01-18_10:06,1,68,61_Caucasian_female_neutral_right.jpg,37_Caucasian_female_neutral_right.jpg,26_Caucasian_female_neutral_right.jpg,cue_right,target_E,target_left,cue_3,200ms,correct,0.49446696077757224
mGCP-III,17,2018-01-18_10:06,1,69,37_Caucasian_female_neutral_left.jpg,61_Caucasian_female_neutral_left.jpg,26_Caucasian_female_neutral_left.jpg,cue_left,target_E,target_right,cue_3,200ms,correct,0.3860556586887469
mGCP-III,17,2018-01-18_10:06,1,70,61_Caucasian_female_neutral_left.jpg,26_Caucasian_female_neutral_left.jpg,37_Caucasian_female_neutral_left.jpg,cue_left,target_F,target_right,cue_3,500ms,correct,0.46295642981021956
mGCP-III,17,2018-01-18_10:06,1,71,61_Caucasian_female_neutral_right.jpg,37_Caucasian_female_neutral_right.jpg,26_Caucasian_female_neutral_right.jpg,cue_right,target_E,target_right,cue_3,500ms,correct,0.4367966170057116
mGCP-III,17,2018-01-18_10:06,1,72,26_Caucasian_female_neutral_right.jpg,61_Caucasian_female_neutral_right.jpg,37_Caucasian_female_neutral_right.jpg,cue_right,target_F,target_right,cue_3,500ms,correct,0.41357606462224794
mGCP-III,17,2018-01-18_10:06,1,73,37_Caucasian_female_neutral_right.jpg,61_Caucasian_female_neutral_right.jpg,26_Caucasian_female_neutral_right.jpg,cue_right,target_E,target_left,cue_3,200ms,correct,0.47772463317505753
mGCP-III,17,2018-01-18_10:06,1,74,26_Caucasian_female_neutral_left.jpg,61_Caucasian_female_neutral_left.jpg,37_Caucasian_female_neutral_left.jpg,cue_left,target_E,target_right,cue_3,200ms,correct,0.37239994958963507
mGCP-III,17,2018-01-18_10:06,1,75,37_Caucasian_female_neutral_left.jpg,26_Caucasian_female_neutral_left.jpg,61_Caucasian_female_neutral_left.jpg,cue_left,target_F,target_right,cue_3,500ms,correct,0.5597315791537767
mGCP-III,17,2018-01-18_10:06,1,76,26_Caucasian_female_neutral_right.jpg,37_Caucasian_female_neutral_right.jpg,61_Caucasian_female_neutral_right.jpg,cue_right,target_F,target_left,cue_3,200ms,incorrect,0.5202186746537336
mGCP-III,17,2018-01-18_10:06,1,77,26_Caucasian_female_neutral_left.jpg,37_Caucasian_female_neutral_left.jpg,61_Caucasian_female_neutral_left.jpg,cue_left,target_F,target_left,cue_3,500ms,correct,0.5238374415166618
mGCP-III,17,2018-01-18_10:06,1,78,26_Caucasian_female_neutral_right.jpg,37_Caucasian_female_neutral_right.jpg,61_Caucasian_female_neutral_right.jpg,cue_right,target_F,target_right,cue_3,200ms,correct,0.3521735712292866
mGCP-III,17,2018-01-18_10:07,1,79,61_Caucasian_female_neutral_left.jpg,37_Caucasian_female_neutral_left.jpg,26_Caucasian_female_neutral_left.jpg,cue_left,target_E,target_right,cue_3,500ms,correct,0.3664503176096332
mGCP-III,17,2018-01-18_10:07,1,80,61_Caucasian_female_neutral_left.jpg,37_Caucasian_female_neutral_left.jpg,26_Caucasian_female_neutral_left.jpg,cue_left,target_F,target_left,cue_3,200ms,correct,0.7044000807509292
mGCP-III,17,2018-01-18_10:07,1,81,37_Caucasian_female_neutral_right.jpg,61_Caucasian_female_neutral_right.jpg,26_Caucasian_female_neutral_right.jpg,cue_right,target_F,target_left,cue_3,200ms,99,99
mGCP-III,17,2018-01-18_10:07,1,82,61_Caucasian_female_neutral_left.jpg,26_Caucasian_female_neutral_left.jpg,37_Caucasian_female_neutral_left.jpg,cue_left,target_E,target_left,cue_3,500ms,correct,0.5056270639515787
mGCP-III,17,2018-01-18_10:07,1,83,26_Caucasian_female_neutral_right.jpg,61_Caucasian_female_neutral_right.jpg,37_Caucasian_female_neutral_right.jpg,cue_right,target_F,target_right,cue_3,200ms,correct,0.4078784821249428
mGCP-III,17,2018-01-18_10:07,1,84,61_Caucasian_female_neutral_right.jpg,37_Caucasian_female_neutral_right.jpg,26_Caucasian_female_neutral_right.jpg,cue_right,target_F,target_right,cue_3,500ms,correct,0.38976054904105695
mGCP-III,17,2018-01-18_10:07,1,85,37_Caucasian_female_neutral_right.jpg,61_Caucasian_female_neutral_right.jpg,26_Caucasian_female_neutral_right.jpg,cue_right,target_E,target_right,cue_3,500ms,correct,0.41932619035105745
mGCP-III,17,2018-01-18_10:07,1,86,26_Caucasian_female_neutral_right.jpg,37_Caucasian_female_neutral_right.jpg,61_Caucasian_female_neutral_right.jpg,cue_right,target_E,target_left,cue_3,500ms,correct,0.7156048259175805
mGCP-III,17,2018-01-18_10:07,1,87,61_Caucasian_female_neutral_right.jpg,26_Caucasian_female_neutral_right.jpg,37_Caucasian_female_neutral_right.jpg,cue_right,target_F,target_left,cue_3,200ms,correct,0.7730290461349796
mGCP-III,17,2018-01-18_10:07,1,88,37_Caucasian_female_neutral_right.jpg,61_Caucasian_female_neutral_right.jpg,26_Caucasian_female_neutral_right.jpg,cue_right,target_F,target_right,cue_3,200ms,correct,0.7652897838179342
mGCP-III,17,2018-01-18_10:07,1,89,37_Caucasian_female_neutral_left.jpg,61_Caucasian_female_neutral_left.jpg,26_Caucasian_female_neutral_left.jpg,cue_left,target_F,target_left,cue_3,500ms,correct,0.49583901070218417
mGCP-III,17,2018-01-18_10:07,1,90,37_Caucasian_female_neutral_left.jpg,61_Caucasian_female_neutral_left.jpg,26_Caucasian_female_neutral_left.jpg,cue_left,target_F,target_right,cue_3,200ms,correct,0.4908521445340739
mGCP-III,17,2018-01-18_10:07,1,91,37_Caucasian_female_neutral_left.jpg,61_Caucasian_female_neutral_left.jpg,26_Caucasian_female_neutral_left.jpg,cue_left,target_F,target_left,cue_3,200ms,incorrect,0.3704858747596518
mGCP-III,17,2018-01-18_10:07,1,92,61_Caucasian_female_neutral_right.jpg,37_Caucasian_female_neutral_right.jpg,26_Caucasian_female_neutral_right.jpg,cue_right,target_E,target_left,cue_3,500ms,correct,0.5320010002960771
mGCP-III,17,2018-01-18_10:07,1,93,37_Caucasian_female_neutral_right.jpg,61_Caucasian_female_neutral_right.jpg,26_Caucasian_female_neutral_right.jpg,cue_right,target_F,target_right,cue_3,500ms,incorrect,0.3439633951466021
mGCP-III,17,2018-01-18_10:07,1,94,37_Caucasian_female_neutral_left.jpg,26_Caucasian_female_neutral_left.jpg,61_Caucasian_female_neutral_left.jpg,cue_left,target_F,target_right,cue_3,200ms,correct,0.4778609295253773
mGCP-III,17,2018-01-18_10:07,1,95,61_Caucasian_female_neutral_left.jpg,37_Caucasian_female_neutral_left.jpg,26_Caucasian_female_neutral_left.jpg,cue_left,target_F,target_right,cue_3,200ms,correct,0.41237547155560605
mGCP-III,17,2018-01-18_10:07,1,96,26_Caucasian_female_neutral_left.jpg,61_Caucasian_female_neutral_left.jpg,37_Caucasian_female_neutral_left.jpg,cue_left,target_E,target_left,cue_3,200ms,correct,0.46803969107713783
mGCP-III,17,2018-01-18_10:07,2,97,99,37_Caucasian_female_neutral_right.jpg,99,cue_right,target_E,target_left,cue_1,200ms,99,99
mGCP-III,17,2018-01-18_10:07,2,98,99,61_Caucasian_female_neutral_right.jpg,99,cue_right,target_F,target_left,cue_1,500ms,correct,0.5147415366882342
mGCP-III,17,2018-01-18_10:07,2,99,99,61_Caucasian_female_neutral_right.jpg,99,cue_right,target_F,target_right,cue_1,200ms,correct,0.4204639685785878
mGCP-III,17,2018-01-18_10:07,2,100,99,26_Caucasian_female_neutral_left.jpg,99,cue_left,target_F,target_left,cue_1,500ms,correct,0.5683557800903145
mGCP-III,17,2018-01-18_10:07,2,101,99,26_Caucasian_female_neutral_right.jpg,99,cue_right,target_E,target_left,cue_1,200ms,correct,0.5440559186390601
mGCP-III,17,2018-01-18_10:08,2,102,99,26_Caucasian_female_neutral_right.jpg,99,cue_right,target_E,target_left,cue_1,200ms,correct,0.4981193078992874
mGCP-III,17,2018-01-18_10:08,2,103,99,37_Caucasian_female_neutral_left.jpg,99,cue_left,target_F,target_right,cue_1,200ms,correct,0.47683416368818143
mGCP-III,17,2018-01-18_10:08,2,104,99,37_Caucasian_female_neutral_right.jpg,99,cue_right,target_E,target_right,cue_1,200ms,correct,0.5644170131035935
mGCP-III,17,2018-01-18_10:08,2,105,99,26_Caucasian_female_neutral_right.jpg,99,cue_right,target_E,target_right,cue_1,500ms,correct,0.4083936428223751
mGCP-III,17,2018-01-18_10:08,2,106,99,37_Caucasian_female_neutral_left.jpg,99,cue_left,target_F,target_left,cue_1,500ms,correct,0.48173332611713704
mGCP-III,17,2018-01-18_10:08,2,107,99,26_Caucasian_female_neutral_left.jpg,99,cue_left,target_E,target_right,cue_1,500ms,correct,0.4735073475576428
mGCP-III,17,2018-01-18_10:08,2,108,99,61_Caucasian_female_neutral_right.jpg,99,cue_right,target_E,target_left,cue_1,200ms,correct,0.7803594194010657
mGCP-III,17,2018-01-18_10:08,2,109,99,26_Caucasian_female_neutral_right.jpg,99,cue_right,target_F,target_right,cue_1,200ms,correct,0.4598109470862255
mGCP-III,17,2018-01-18_10:08,2,110,99,61_Caucasian_female_neutral_right.jpg,99,cue_right,target_E,target_left,cue_1,200ms,correct,0.4620608245177209
mGCP-III,17,2018-01-18_10:08,2,111,99,37_Caucasian_female_neutral_right.jpg,99,cue_right,target_F,target_right,cue_1,500ms,correct,0.48547772265737876
mGCP-III,17,2018-01-18_10:08,2,112,99,26_Caucasian_female_neutral_left.jpg,99,cue_left,target_E,target_left,cue_1,200ms,correct,0.5120736837816366
mGCP-III,17,2018-01-18_10:08,2,113,99,26_Caucasian_female_neutral_left.jpg,99,cue_left,target_F,target_left,cue_1,200ms,correct,0.5126129432546804
mGCP-III,17,2018-01-18_10:08,2,114,99,61_Caucasian_female_neutral_left.jpg,99,cue_left,target_F,target_left,cue_1,500ms,correct,0.4161344853864648
mGCP-III,17,2018-01-18_10:08,2,115,99,37_Caucasian_female_neutral_left.jpg,99,cue_left,target_E,target_left,cue_1,500ms,incorrect,0.4458372131703072
mGCP-III,17,2018-01-18_10:08,2,116,99,37_Caucasian_female_neutral_left.jpg,99,cue_left,target_E,target_right,cue_1,500ms,correct,0.5697068917361321
mGCP-III,17,2018-01-18_10:08,2,117,99,37_Caucasian_female_neutral_right.jpg,99,cue_right,target_F,target_right,cue_1,200ms,correct,0.4950836523785256
mGCP-III,17,2018-01-18_10:08,2,118,99,37_Caucasian_female_neutral_left.jpg,99,cue_left,target_E,target_left,cue_1,500ms,correct,0.6370459800673416
mGCP-III,17,2018-01-18_10:08,2,119,99,37_Caucasian_female_neutral_right.jpg,99,cue_right,target_E,target_right,cue_1,500ms,correct,0.6746926122241348
mGCP-III,17,2018-01-18_10:08,2,120,99,26_Caucasian_female_neutral_right.jpg,99,cue_right,target_E,target_right,cue_1,200ms,correct,0.46182852813035424
mGCP-III,17,2018-01-18_10:08,2,121,99,37_Caucasian_female_neutral_right.jpg,99,cue_right,target_F,target_left,cue_1,500ms,correct,0.4841854752339714
mGCP-III,17,2018-01-18_10:08,2,122,99,26_Caucasian_female_neutral_left.jpg,99,cue_left,target_F,target_left,cue_1,200ms,incorrect,0.7624998567898729
mGCP-III,17,2018-01-18_10:08,2,123,99,26_Caucasian_female_neutral_left.jpg,99,cue_left,target_E,target_left,cue_1,500ms,correct,0.5619798763373183
mGCP-III,17,2018-01-18_10:08,2,124,99,37_Caucasian_female_neutral_right.jpg,99,cue_right,target_F,target_right,cue_1,200ms,correct,0.464058257405668
mGCP-III,17,2018-01-18_10:08,2,125,99,37_Caucasian_female_neutral_left.jpg,99,cue_left,target_F,target_left,cue_1,200ms,incorrect,0.6346199050349242
mGCP-III,17,2018-01-18_10:08,2,126,99,61_Caucasian_female_neutral_right.jpg,99,cue_right,target_F,target_left,cue_1,200ms,correct,0.6284778779172484
mGCP-III,17,2018-01-18_10:08,2,127,99,61_Caucasian_female_neutral_right.jpg,99,cue_right,target_E,target_left,cue_1,500ms,correct,0.6179364416539102
mGCP-III,17,2018-01-18_10:08,2,128,99,61_Caucasian_female_neutral_left.jpg,99,cue_left,target_F,target_right,cue_1,200ms,correct,0.5327610993617782
mGCP-III,17,2018-01-18_10:08,2,129,99,61_Caucasian_female_neutral_right.jpg,99,cue_right,target_E,target_right,cue_1,200ms,correct,0.5477529077543295
mGCP-III,17,2018-01-18_10:08,2,130,99,61_Caucasian_female_neutral_right.jpg,99,cue_right,target_E,target_right,cue_1,200ms,correct,0.4709343095046279
mGCP-III,17,2018-01-18_10:08,2,131,99,26_Caucasian_female_neutral_left.jpg,99,cue_left,target_F,target_right,cue_1,200ms,correct,0.5178431675431057
mGCP-III,17,2018-01-18_10:08,2,132,99,61_Caucasian_female_neutral_left.jpg,99,cue_left,target_F,target_left,cue_1,200ms,incorrect,0.7942517705687351
mGCP-III,17,2018-01-18_10:08,2,133,99,37_Caucasian_female_neutral_left.jpg,99,cue_left,target_E,target_left,cue_1,200ms,correct,0.47291435967053985
mGCP-III,17,2018-01-18_10:09,2,134,99,26_Caucasian_female_neutral_left.jpg,99,cue_left,target_E,target_right,cue_1,200ms,correct,0.5736108932787829
mGCP-III,17,2018-01-18_10:09,2,135,99,61_Caucasian_female_neutral_left.jpg,99,cue_left,target_F,target_right,cue_1,500ms,correct,0.5450680671874579
mGCP-III,17,2018-01-18_10:09,2,136,99,61_Caucasian_female_neutral_left.jpg,99,cue_left,target_E,target_right,cue_1,500ms,correct,0.7944113755702347
mGCP-III,17,2018-01-18_10:09,2,137,99,61_Caucasian_female_neutral_left.jpg,99,cue_left,target_F,target_left,cue_1,200ms,correct,0.48218448678835557
mGCP-III,17,2018-01-18_10:09,2,138,99,26_Caucasian_female_neutral_left.jpg,99,cue_left,target_E,target_left,cue_1,200ms,correct,0.6428336366752774
mGCP-III,17,2018-01-18_10:09,2,139,99,26_Caucasian_female_neutral_right.jpg,99,cue_right,target_F,target_right,cue_1,500ms,correct,0.49980069127923343
mGCP-III,17,2018-01-18_10:09,2,140,99,26_Caucasian_female_neutral_right.jpg,99,cue_right,target_F,target_right,cue_1,500ms,correct,0.5399413491131781
mGCP-III,17,2018-01-18_10:09,2,141,99,26_Caucasian_female_neutral_left.jpg,99,cue_left,target_E,target_right,cue_1,200ms,correct,0.5386613486070928
mGCP-III,17,2018-01-18_10:09,2,142,99,61_Caucasian_female_neutral_left.jpg,99,cue_left,target_E,target_right,cue_1,500ms,correct,0.5702098055153328
mGCP-III,17,2018-01-18_10:09,2,143,99,61_Caucasian_female_neutral_left.jpg,99,cue_left,target_F,target_right,cue_1,200ms,correct,0.6166220707646062
mGCP-III,17,2018-01-18_10:09,2,144,99,26_Caucasian_female_neutral_right.jpg,99,cue_right,target_F,target_right,cue_1,200ms,correct,0.5156829691586609
mGCP-III,17,2018-01-18_10:09,2,145,99,26_Caucasian_female_neutral_right.jpg,99,cue_right,target_E,target_right,cue_1,500ms,correct,0.535500063408108
mGCP-III,17,2018-01-18_10:09,2,146,99,37_Caucasian_female_neutral_right.jpg,99,cue_right,target_E,target_right,cue_1,500ms,correct,0.5182074146005107
mGCP-III,17,2018-01-18_10:09,2,147,99,61_Caucasian_female_neutral_right.jpg,99,cue_right,target_E,target_right,cue_1,500ms,correct,0.5389453981015322
mGCP-III,17,2018-01-18_10:09,2,148,99,26_Caucasian_female_neutral_right.jpg,99,cue_right,target_F,target_left,cue_1,200ms,correct,0.6856958758307883
mGCP-III,17,2018-01-18_10:09,2,149,99,26_Caucasian_female_neutral_left.jpg,99,cue_left,target_F,target_right,cue_1,200ms,correct,0.5538088113808044
mGCP-III,17,2018-01-18_10:09,2,150,99,37_Caucasian_female_neutral_left.jpg,99,cue_left,target_E,target_right,cue_1,500ms,correct,0.501441383285055
mGCP-III,17,2018-01-18_10:09,2,151,99,37_Caucasian_female_neutral_left.jpg,99,cue_left,target_E,target_right,cue_1,200ms,correct,0.46001914469889016
mGCP-III,17,2018-01-18_10:09,2,152,99,37_Caucasian_female_neutral_right.jpg,99,cue_right,target_E,target_left,cue_1,500ms,correct,0.6032634482025969
mGCP-III,17,2018-01-18_10:09,2,153,99,61_Caucasian_female_neutral_left.jpg,99,cue_left,target_E,target_left,cue_1,200ms,correct,0.6715498949333778
mGCP-III,17,2018-01-18_10:09,2,154,99,37_Caucasian_female_neutral_right.jpg,99,cue_right,target_F,target_left,cue_1,500ms,correct,0.5915648756799783
mGCP-III,17,2018-01-18_10:09,2,155,99,26_Caucasian_female_neutral_left.jpg,99,cue_left,target_E,target_right,cue_1,500ms,correct,0.5228596633523921
mGCP-III,17,2018-01-18_10:09,2,156,99,37_Caucasian_female_neutral_right.jpg,99,cue_right,target_E,target_left,cue_1,500ms,correct,0.46185065159534133
mGCP-III,17,2018-01-18_10:09,2,157,99,37_Caucasian_female_neutral_left.jpg,99,cue_left,target_F,target_right,cue_1,200ms,correct,0.6193163928155627
mGCP-III,17,2018-01-18_10:09,2,158,99,61_Caucasian_female_neutral_left.jpg,99,cue_left,target_E,target_left,cue_1,500ms,correct,0.6802795773946855
mGCP-III,17,2018-01-18_10:09,2,159,99,26_Caucasian_female_neutral_right.jpg,99,cue_right,target_F,target_left,cue_1,500ms,correct,0.47579949661212595
mGCP-III,17,2018-01-18_10:09,2,160,99,61_Caucasian_female_neutral_right.jpg,99,cue_right,target_F,target_left,cue_1,200ms,99,99
mGCP-III,17,2018-01-18_10:09,2,161,99,61_Caucasian_female_neutral_right.jpg,99,cue_right,target_F,target_right,cue_1,200ms,correct,0.4956047390041931
mGCP-III,17,2018-01-18_10:09,2,162,99,61_Caucasian_female_neutral_right.jpg,99,cue_right,target_F,target_right,cue_1,500ms,correct,0.3983752684935098
mGCP-III,17,2018-01-18_10:10,2,163,99,26_Caucasian_female_neutral_left.jpg,99,cue_left,target_E,target_left,cue_1,500ms,correct,0.45837647738335363
mGCP-III,17,2018-01-18_10:10,2,164,99,61_Caucasian_female_neutral_right.jpg,99,cue_right,target_E,target_right,cue_1,500ms,correct,0.4212612034616541
mGCP-III,17,2018-01-18_10:10,2,165,99,26_Caucasian_female_neutral_right.jpg,99,cue_right,target_E,target_right,cue_1,200ms,correct,0.5686986938071641
mGCP-III,17,2018-01-18_10:10,2,166,99,26_Caucasian_female_neutral_right.jpg,99,cue_right,target_F,target_left,cue_1,500ms,correct,0.44344669370730116
mGCP-III,17,2018-01-18_10:10,2,167,99,26_Caucasian_female_neutral_right.jpg,99,cue_right,target_F,target_left,cue_1,200ms,correct,0.4363778514089063
mGCP-III,17,2018-01-18_10:10,2,168,99,37_Caucasian_female_neutral_left.jpg,99,cue_left,target_F,target_left,cue_1,200ms,correct,0.48005707854099455
mGCP-III,17,2018-01-18_10:10,2,169,99,26_Caucasian_female_neutral_left.jpg,99,cue_left,target_F,target_left,cue_1,500ms,correct,0.5230623300985826
mGCP-III,17,2018-01-18_10:10,2,170,99,37_Caucasian_female_neutral_left.jpg,99,cue_left,target_F,target_right,cue_1,500ms,incorrect,0.4314976519499396
mGCP-III,17,2018-01-18_10:10,2,171,99,26_Caucasian_female_neutral_right.jpg,99,cue_right,target_E,target_left,cue_1,500ms,correct,0.5944267039703846
mGCP-III,17,2018-01-18_10:10,2,172,99,37_Caucasian_female_neutral_left.jpg,99,cue_left,target_E,target_right,cue_1,200ms,correct,0.5681207182697108
mGCP-III,17,2018-01-18_10:10,2,173,99,37_Caucasian_female_neutral_right.jpg,99,cue_right,target_F,target_left,cue_1,200ms,correct,0.4072333460671871
mGCP-III,17,2018-01-18_10:10,2,174,99,37_Caucasian_female_neutral_right.jpg,99,cue_right,target_E,target_left,cue_1,200ms,correct,0.6816520223810585
mGCP-III,17,2018-01-18_10:10,2,175,99,61_Caucasian_female_neutral_right.jpg,99,cue_right,target_F,target_right,cue_1,500ms,correct,0.691531334926367
mGCP-III,17,2018-01-18_10:10,2,176,99,61_Caucasian_female_neutral_right.jpg,99,cue_right,target_F,target_left,cue_1,500ms,correct,0.3823045460958383
mGCP-III,17,2018-01-18_10:10,2,177,99,37_Caucasian_female_neutral_left.jpg,99,cue_left,target_F,target_right,cue_1,500ms,correct,0.5517987365137742
mGCP-III,17,2018-01-18_10:10,2,178,99,61_Caucasian_female_neutral_left.jpg,99,cue_left,target_E,target_right,cue_1,200ms,correct,0.5964525813142245
mGCP-III,17,2018-01-18_10:10,2,179,99,26_Caucasian_female_neutral_right.jpg,99,cue_right,target_E,target_left,cue_1,500ms,incorrect,0.49337738010035537
mGCP-III,17,2018-01-18_10:10,2,180,99,61_Caucasian_female_neutral_left.jpg,99,cue_left,target_E,target_left,cue_1,500ms,correct,0.5786388458818692
mGCP-III,17,2018-01-18_10:10,2,181,99,61_Caucasian_female_neutral_right.jpg,99,cue_right,target_E,target_left,cue_1,500ms,correct,0.412459619737092
mGCP-III,17,2018-01-18_10:10,2,182,99,37_Caucasian_female_neutral_right.jpg,99,cue_right,target_F,target_left,cue_1,200ms,correct,0.6119394022480265
mGCP-III,17,2018-01-18_10:10,2,183,99,26_Caucasian_female_neutral_left.jpg,99,cue_left,target_F,target_right,cue_1,500ms,correct,0.49692148026497307
mGCP-III,17,2018-01-18_10:10,2,184,99,37_Caucasian_female_neutral_left.jpg,99,cue_left,target_F,target_left,cue_1,500ms,correct,0.5117449922945525
mGCP-III,17,2018-01-18_10:10,2,185,99,61_Caucasian_female_neutral_left.jpg,99,cue_left,target_F,target_right,cue_1,500ms,correct,0.4285516754771379
mGCP-III,17,2018-01-18_10:10,2,186,99,61_Caucasian_female_neutral_left.jpg,99,cue_left,target_F,target_left,cue_1,500ms,correct,0.44106131004900817
mGCP-III,17,2018-01-18_10:10,2,187,99,26_Caucasian_female_neutral_left.jpg,99,cue_left,target_F,target_right,cue_1,500ms,correct,0.6915732114857747
mGCP-III,17,2018-01-18_10:10,2,188,99,37_Caucasian_female_neutral_left.jpg,99,cue_left,target_E,target_left,cue_1,200ms,correct,0.5267194179632497
mGCP-III,17,2018-01-18_10:10,2,189,99,37_Caucasian_female_neutral_right.jpg,99,cue_right,target_E,target_right,cue_1,200ms,correct,0.4303515774236075
mGCP-III,17,2018-01-18_10:10,2,190,99,61_Caucasian_female_neutral_left.jpg,99,cue_left,target_E,target_left,cue_1,200ms,correct,0.46667751769928145
mGCP-III,17,2018-01-18_10:10,2,191,99,61_Caucasian_female_neutral_left.jpg,99,cue_left,target_E,target_right,cue_1,200ms,correct,0.41788381941114494
mGCP-III,17,2018-01-18_10:10,2,192,99,37_Caucasian_female_neutral_right.jpg,99,cue_right,target_F,target_right,cue_1,500ms,correct,0.48693550101143046
mGCP-III,17,2018-01-18_10:11,3,193,26_Caucasian_female_neutral_left.jpg,61_Caucasian_female_neutral_left.jpg,37_Caucasian_female_neutral_left.jpg,cue_left,target_E,target_left,cue_3,200ms,correct,0.7473903199570486
mGCP-III,17,2018-01-18_10:11,3,194,26_Caucasian_female_neutral_left.jpg,37_Caucasian_female_neutral_left.jpg,61_Caucasian_female_neutral_left.jpg,cue_left,target_E,target_right,cue_3,500ms,correct,0.43601360435150127
mGCP-III,17,2018-01-18_10:11,3,195,37_Caucasian_female_neutral_left.jpg,26_Caucasian_female_neutral_left.jpg,61_Caucasian_female_neutral_left.jpg,cue_left,target_E,target_left,cue_3,200ms,correct,0.6425199575387524
mGCP-III,17,2018-01-18_10:11,3,196,26_Caucasian_female_neutral_right.jpg,61_Caucasian_female_neutral_right.jpg,37_Caucasian_female_neutral_right.jpg,cue_right,target_E,target_left,cue_3,200ms,correct,0.42482742709216836
mGCP-III,17,2018-01-18_10:11,3,197,37_Caucasian_female_neutral_right.jpg,61_Caucasian_female_neutral_right.jpg,26_Caucasian_female_neutral_right.jpg,cue_right,target_F,target_right,cue_3,200ms,correct,0.448518103117749
mGCP-III,17,2018-01-18_10:11,3,198,37_Caucasian_female_neutral_left.jpg,61_Caucasian_female_neutral_left.jpg,26_Caucasian_female_neutral_left.jpg,cue_left,target_F,target_left,cue_3,500ms,correct,0.5613857032640226
mGCP-III,17,2018-01-18_10:11,3,199,26_Caucasian_female_neutral_left.jpg,61_Caucasian_female_neutral_left.jpg,37_Caucasian_female_neutral_left.jpg,cue_left,target_E,target_right,cue_3,500ms,correct,0.5116778317742501
mGCP-III,17,2018-01-18_10:11,3,200,61_Caucasian_female_neutral_left.jpg,37_Caucasian_female_neutral_left.jpg,26_Caucasian_female_neutral_left.jpg,cue_left,target_E,target_right,cue_3,500ms,correct,0.5686141505639171
mGCP-III,17,2018-01-18_10:11,3,201,26_Caucasian_female_neutral_left.jpg,37_Caucasian_female_neutral_left.jpg,61_Caucasian_female_neutral_left.jpg,cue_left,target_F,target_left,cue_3,200ms,incorrect,0.6246279998531463
mGCP-III,17,2018-01-18_10:11,3,202,37_Caucasian_female_neutral_left.jpg,26_Caucasian_female_neutral_left.jpg,61_Caucasian_female_neutral_left.jpg,cue_left,target_F,target_left,cue_3,500ms,correct,0.46618013478746434
mGCP-III,17,2018-01-18_10:11,3,203,61_Caucasian_female_neutral_left.jpg,37_Caucasian_female_neutral_left.jpg,26_Caucasian_female_neutral_left.jpg,cue_left,target_F,target_left,cue_3,200ms,correct,0.4991002465585552
mGCP-III,17,2018-01-18_10:11,3,204,61_Caucasian_female_neutral_left.jpg,26_Caucasian_female_neutral_left.jpg,37_Caucasian_female_neutral_left.jpg,cue_left,target_E,target_left,cue_3,500ms,correct,0.5960010255803354
mGCP-III,17,2018-01-18_10:11,3,205,26_Caucasian_female_neutral_left.jpg,61_Caucasian_female_neutral_left.jpg,37_Caucasian_female_neutral_left.jpg,cue_left,target_F,target_left,cue_3,500ms,correct,0.64840558949345
mGCP-III,17,2018-01-18_10:11,3,206,26_Caucasian_female_neutral_left.jpg,37_Caucasian_female_neutral_left.jpg,61_Caucasian_female_neutral_left.jpg,cue_left,target_F,target_right,cue_3,200ms,correct,0.5508075262441707
mGCP-III,17,2018-01-18_10:11,3,207,37_Caucasian_female_neutral_left.jpg,26_Caucasian_female_neutral_left.jpg,61_Caucasian_female_neutral_left.jpg,cue_left,target_F,target_right,cue_3,200ms,correct,0.6544642585540714
mGCP-III,17,2018-01-18_10:11,3,208,37_Caucasian_female_neutral_right.jpg,61_Caucasian_female_neutral_right.jpg,26_Caucasian_female_neutral_right.jpg,cue_right,target_F,target_left,cue_3,500ms,correct,0.506670422388197
mGCP-III,17,2018-01-18_10:11,3,209,26_Caucasian_female_neutral_right.jpg,37_Caucasian_female_neutral_right.jpg,61_Caucasian_female_neutral_right.jpg,cue_right,target_F,target_left,cue_3,200ms,correct,0.5844640333680218
mGCP-III,17,2018-01-18_10:11,3,210,26_Caucasian_female_neutral_left.jpg,37_Caucasian_female_neutral_left.jpg,61_Caucasian_female_neutral_left.jpg,cue_left,target_F,target_right,cue_3,500ms,correct,0.52821156670052
mGCP-III,17,2018-01-18_10:11,3,211,26_Caucasian_female_neutral_left.jpg,61_Caucasian_female_neutral_left.jpg,37_Caucasian_female_neutral_left.jpg,cue_left,target_E,target_left,cue_3,500ms,correct,0.4892217241367689
mGCP-III,17,2018-01-18_10:11,3,212,61_Caucasian_female_neutral_right.jpg,26_Caucasian_female_neutral_right.jpg,37_Caucasian_female_neutral_right.jpg,cue_right,target_E,target_left,cue_3,200ms,correct,0.6552836169021248
mGCP-III,17,2018-01-18_10:11,3,213,61_Caucasian_female_neutral_right.jpg,26_Caucasian_female_neutral_right.jpg,37_Caucasian_female_neutral_right.jpg,cue_right,target_F,target_left,cue_3,200ms,correct,0.5313527037442327
mGCP-III,17,2018-01-18_10:11,3,214,37_Caucasian_female_neutral_right.jpg,26_Caucasian_female_neutral_right.jpg,61_Caucasian_female_neutral_right.jpg,cue_right,target_F,target_right,cue_3,500ms,correct,0.48989451452689536
mGCP-III,17,2018-01-18_10:11,3,215,26_Caucasian_female_neutral_left.jpg,61_Caucasian_female_neutral_left.jpg,37_Caucasian_female_neutral_left.jpg,cue_left,target_F,target_left,cue_3,200ms,correct,0.5765675364218623
mGCP-III,17,2018-01-18_10:11,3,216,26_Caucasian_female_neutral_left.jpg,37_Caucasian_female_neutral_left.jpg,61_Caucasian_female_neutral_left.jpg,cue_left,target_E,target_left,cue_3,500ms,correct,0.6173877006958719
mGCP-III,17,2018-01-18_10:11,3,217,61_Caucasian_female_neutral_left.jpg,26_Caucasian_female_neutral_left.jpg,37_Caucasian_female_neutral_left.jpg,cue_left,target_E,target_right,cue_3,200ms,correct,0.4650328750749395
mGCP-III,17,2018-01-18_10:11,3,218,61_Caucasian_female_neutral_left.jpg,26_Caucasian_female_neutral_left.jpg,37_Caucasian_female_neutral_left.jpg,cue_left,target_F,target_right,cue_3,500ms,correct,0.6088148578037362
mGCP-III,17,2018-01-18_10:11,3,219,61_Caucasian_female_neutral_right.jpg,26_Caucasian_female_neutral_right.jpg,37_Caucasian_female_neutral_right.jpg,cue_right,target_F,target_right,cue_3,500ms,correct,0.49251377482050884
mGCP-III,17,2018-01-18_10:11,3,220,26_Caucasian_female_neutral_right.jpg,37_Caucasian_female_neutral_right.jpg,61_Caucasian_female_neutral_right.jpg,cue_right,target_F,target_right,cue_3,200ms,correct,0.554815034000967
mGCP-III,17,2018-01-18_10:11,3,221,37_Caucasian_female_neutral_right.jpg,26_Caucasian_female_neutral_right.jpg,61_Caucasian_female_neutral_right.jpg,cue_right,target_E,target_right,cue_3,500ms,correct,0.6133537237938071
mGCP-III,17,2018-01-18_10:12,3,222,61_Caucasian_female_neutral_left.jpg,26_Caucasian_female_neutral_left.jpg,37_Caucasian_female_neutral_left.jpg,cue_left,target_E,target_right,cue_3,500ms,correct,0.3847756581826616
mGCP-III,17,2018-01-18_10:12,3,223,26_Caucasian_female_neutral_right.jpg,37_Caucasian_female_neutral_right.jpg,61_Caucasian_female_neutral_right.jpg,cue_right,target_E,target_left,cue_3,200ms,correct,0.6203889858325056
mGCP-III,17,2018-01-18_10:12,3,224,26_Caucasian_female_neutral_right.jpg,61_Caucasian_female_neutral_right.jpg,37_Caucasian_female_neutral_right.jpg,cue_right,target_F,target_left,cue_3,500ms,correct,0.5505112298314998
mGCP-III,17,2018-01-18_10:12,3,225,26_Caucasian_female_neutral_right.jpg,61_Caucasian_female_neutral_right.jpg,37_Caucasian_female_neutral_right.jpg,cue_right,target_E,target_left,cue_3,500ms,99,99
mGCP-III,17,2018-01-18_10:12,3,226,61_Caucasian_female_neutral_right.jpg,37_Caucasian_female_neutral_right.jpg,26_Caucasian_female_neutral_right.jpg,cue_right,target_F,target_left,cue_3,200ms,correct,0.5891719858454962
mGCP-III,17,2018-01-18_10:12,3,227,26_Caucasian_female_neutral_left.jpg,61_Caucasian_female_neutral_left.jpg,37_Caucasian_female_neutral_left.jpg,cue_left,target_F,target_right,cue_3,500ms,correct,0.5182793158637651
mGCP-III,17,2018-01-18_10:12,3,228,26_Caucasian_female_neutral_left.jpg,37_Caucasian_female_neutral_left.jpg,61_Caucasian_female_neutral_left.jpg,cue_left,target_E,target_right,cue_3,200ms,correct,0.5549726636927517
mGCP-III,17,2018-01-18_10:12,3,229,37_Caucasian_female_neutral_right.jpg,61_Caucasian_female_neutral_right.jpg,26_Caucasian_female_neutral_right.jpg,cue_right,target_E,target_right,cue_3,200ms,correct,0.63045358240106
mGCP-III,17,2018-01-18_10:12,3,230,37_Caucasian_female_neutral_left.jpg,26_Caucasian_female_neutral_left.jpg,61_Caucasian_female_neutral_left.jpg,cue_left,target_F,target_right,cue_3,500ms,correct,0.4813240420044167
mGCP-III,17,2018-01-18_10:12,3,231,61_Caucasian_female_neutral_left.jpg,37_Caucasian_female_neutral_left.jpg,26_Caucasian_female_neutral_left.jpg,cue_left,target_F,target_left,cue_3,500ms,correct,0.5567310841406652
mGCP-III,17,2018-01-18_10:12,3,232,26_Caucasian_female_neutral_right.jpg,37_Caucasian_female_neutral_right.jpg,61_Caucasian_female_neutral_right.jpg,cue_right,target_F,target_right,cue_3,500ms,incorrect,0.5240128489922427
mGCP-III,17,2018-01-18_10:12,3,233,61_Caucasian_female_neutral_right.jpg,26_Caucasian_female_neutral_right.jpg,37_Caucasian_female_neutral_right.jpg,cue_right,target_E,target_left,cue_3,500ms,correct,0.495264195659729
mGCP-III,17,2018-01-18_10:12,3,234,26_Caucasian_female_neutral_right.jpg,61_Caucasian_female_neutral_right.jpg,37_Caucasian_female_neutral_right.jpg,cue_right,target_E,target_right,cue_3,200ms,correct,0.5464954257759018
mGCP-III,17,2018-01-18_10:12,3,235,37_Caucasian_female_neutral_right.jpg,61_Caucasian_female_neutral_right.jpg,26_Caucasian_female_neutral_right.jpg,cue_right,target_F,target_right,cue_3,500ms,correct,0.53074391338032
mGCP-III,17,2018-01-18_10:12,3,236,61_Caucasian_female_neutral_left.jpg,26_Caucasian_female_neutral_left.jpg,37_Caucasian_female_neutral_left.jpg,cue_left,target_F,target_right,cue_3,200ms,correct,0.4706550007531405
mGCP-III,17,2018-01-18_10:12,3,237,26_Caucasian_female_neutral_right.jpg,37_Caucasian_female_neutral_right.jpg,61_Caucasian_female_neutral_right.jpg,cue_right,target_F,target_left,cue_3,500ms,correct,0.7481599005077442
mGCP-III,17,2018-01-18_10:12,3,238,61_Caucasian_female_neutral_left.jpg,37_Caucasian_female_neutral_left.jpg,26_Caucasian_female_neutral_left.jpg,cue_left,target_F,target_right,cue_3,500ms,correct,0.6969136580401027
mGCP-III,17,2018-01-18_10:12,3,239,26_Caucasian_female_neutral_right.jpg,61_Caucasian_female_neutral_right.jpg,37_Caucasian_female_neutral_right.jpg,cue_right,target_F,target_right,cue_3,200ms,correct,0.4819699681856946
mGCP-III,17,2018-01-18_10:12,3,240,61_Caucasian_female_neutral_right.jpg,37_Caucasian_female_neutral_right.jpg,26_Caucasian_female_neutral_right.jpg,cue_right,target_F,target_left,cue_3,500ms,correct,0.5008472102108499
mGCP-III,17,2018-01-18_10:12,3,241,37_Caucasian_female_neutral_left.jpg,26_Caucasian_female_neutral_left.jpg,61_Caucasian_female_neutral_left.jpg,cue_left,target_E,target_right,cue_3,500ms,correct,0.5260588744931738
mGCP-III,17,2018-01-18_10:12,3,242,61_Caucasian_female_neutral_left.jpg,37_Caucasian_female_neutral_left.jpg,26_Caucasian_female_neutral_left.jpg,cue_left,target_F,target_right,cue_3,200ms,correct,0.5047772858379176
mGCP-III,17,2018-01-18_10:12,3,243,26_Caucasian_female_neutral_left.jpg,37_Caucasian_female_neutral_left.jpg,61_Caucasian_female_neutral_left.jpg,cue_left,target_F,target_left,cue_3,500ms,correct,0.5548446636421431
mGCP-III,17,2018-01-18_10:12,3,244,61_Caucasian_female_neutral_right.jpg,37_Caucasian_female_neutral_right.jpg,26_Caucasian_female_neutral_right.jpg,cue_right,target_E,target_right,cue_3,500ms,correct,0.4220307840123496
mGCP-III,17,2018-01-18_10:12,3,245,26_Caucasian_female_neutral_right.jpg,37_Caucasian_female_neutral_right.jpg,61_Caucasian_female_neutral_right.jpg,cue_right,target_E,target_right,cue_3,500ms,correct,0.39960707145019114
mGCP-III,17,2018-01-18_10:12,3,246,26_Caucasian_female_neutral_right.jpg,61_Caucasian_female_neutral_right.jpg,37_Caucasian_female_neutral_right.jpg,cue_right,target_E,target_right,cue_3,500ms,correct,0.35414927571400767
mGCP-III,17,2018-01-18_10:12,3,247,37_Caucasian_female_neutral_right.jpg,61_Caucasian_female_neutral_right.jpg,26_Caucasian_female_neutral_right.jpg,cue_right,target_E,target_left,cue_3,500ms,incorrect,0.5903303072909694
mGCP-III,17,2018-01-18_10:12,3,248,61_Caucasian_female_neutral_right.jpg,37_Caucasian_female_neutral_right.jpg,26_Caucasian_female_neutral_right.jpg,cue_right,target_E,target_left,cue_3,500ms,correct,0.6015500648099987
mGCP-III,17,2018-01-18_10:12,3,249,37_Caucasian_female_neutral_left.jpg,26_Caucasian_female_neutral_left.jpg,61_Caucasian_female_neutral_left.jpg,cue_left,target_E,target_left,cue_3,500ms,correct,0.43354407251081284
mGCP-III,17,2018-01-18_10:12,3,250,26_Caucasian_female_neutral_left.jpg,61_Caucasian_female_neutral_left.jpg,37_Caucasian_female_neutral_left.jpg,cue_left,target_F,target_right,cue_3,200ms,correct,0.5197860818907429
mGCP-III,17,2018-01-18_10:13,3,251,37_Caucasian_female_neutral_left.jpg,61_Caucasian_female_neutral_left.jpg,26_Caucasian_female_neutral_left.jpg,cue_left,target_E,target_right,cue_3,500ms,correct,0.5671504462816301
mGCP-III,17,2018-01-18_10:13,3,252,61_Caucasian_female_neutral_right.jpg,26_Caucasian_female_neutral_right.jpg,37_Caucasian_female_neutral_right.jpg,cue_right,target_E,target_right,cue_3,200ms,correct,0.4244888590574192
mGCP-III,17,2018-01-18_10:13,3,253,61_Caucasian_female_neutral_right.jpg,37_Caucasian_female_neutral_right.jpg,26_Caucasian_female_neutral_right.jpg,cue_right,target_E,target_left,cue_3,200ms,correct,0.5701991388441456
mGCP-III,17,2018-01-18_10:13,3,254,37_Caucasian_female_neutral_right.jpg,61_Caucasian_female_neutral_right.jpg,26_Caucasian_female_neutral_right.jpg,cue_right,target_F,target_left,cue_3,200ms,correct,0.5982738166021591
mGCP-III,17,2018-01-18_10:13,3,255,37_Caucasian_female_neutral_right.jpg,26_Caucasian_female_neutral_right.jpg,61_Caucasian_female_neutral_right.jpg,cue_right,target_E,target_left,cue_3,500ms,correct,0.6862623945726227
mGCP-III,17,2018-01-18_10:13,3,256,61_Caucasian_female_neutral_left.jpg,37_Caucasian_female_neutral_left.jpg,26_Caucasian_female_neutral_left.jpg,cue_left,target_E,target_right,cue_3,200ms,correct,0.4349113816933823
mGCP-III,17,2018-01-18_10:13,3,257,37_Caucasian_female_neutral_right.jpg,26_Caucasian_female_neutral_right.jpg,61_Caucasian_female_neutral_right.jpg,cue_right,target_F,target_left,cue_3,500ms,correct,0.5730214609466202
mGCP-III,17,2018-01-18_10:13,3,258,61_Caucasian_female_neutral_right.jpg,37_Caucasian_female_neutral_right.jpg,26_Caucasian_female_neutral_right.jpg,cue_right,target_F,target_right,cue_3,200ms,correct,0.49253787359521084
mGCP-III,17,2018-01-18_10:13,3,259,61_Caucasian_female_neutral_right.jpg,26_Caucasian_female_neutral_right.jpg,37_Caucasian_female_neutral_right.jpg,cue_right,target_E,target_right,cue_3,500ms,correct,0.6081199439486227
mGCP-III,17,2018-01-18_10:13,3,260,37_Caucasian_female_neutral_left.jpg,61_Caucasian_female_neutral_left.jpg,26_Caucasian_female_neutral_left.jpg,cue_left,target_F,target_left,cue_3,200ms,correct,0.7493423207279193
mGCP-III,17,2018-01-18_10:13,3,261,26_Caucasian_female_neutral_left.jpg,61_Caucasian_female_neutral_left.jpg,37_Caucasian_female_neutral_left.jpg,cue_left,target_E,target_right,cue_3,200ms,correct,0.3820734348928454
mGCP-III,17,2018-01-18_10:13,3,262,61_Caucasian_female_neutral_left.jpg,26_Caucasian_female_neutral_left.jpg,37_Caucasian_female_neutral_left.jpg,cue_left,target_F,target_left,cue_3,200ms,correct,0.5490558218498336
mGCP-III,17,2018-01-18_10:13,3,263,37_Caucasian_female_neutral_right.jpg,26_Caucasian_female_neutral_right.jpg,61_Caucasian_female_neutral_right.jpg,cue_right,target_F,target_right,cue_3,200ms,incorrect,0.4150144849436401
mGCP-III,17,2018-01-18_10:13,3,264,26_Caucasian_female_neutral_right.jpg,61_Caucasian_female_neutral_right.jpg,37_Caucasian_female_neutral_right.jpg,cue_right,target_F,target_right,cue_3,500ms,correct,0.49641382574372983
mGCP-III,17,2018-01-18_10:13,3,265,37_Caucasian_female_neutral_left.jpg,61_Caucasian_female_neutral_left.jpg,26_Caucasian_female_neutral_left.jpg,cue_left,target_E,target_left,cue_3,500ms,correct,0.5686485209471357
mGCP-III,17,2018-01-18_10:13,3,266,37_Caucasian_female_neutral_left.jpg,61_Caucasian_female_neutral_left.jpg,26_Caucasian_female_neutral_left.jpg,cue_left,target_E,target_left,cue_3,200ms,correct,0.5082004970672642
mGCP-III,17,2018-01-18_10:13,3,267,61_Caucasian_female_neutral_right.jpg,26_Caucasian_female_neutral_right.jpg,37_Caucasian_female_neutral_right.jpg,cue_right,target_F,target_left,cue_3,500ms,correct,0.5754585977119859
mGCP-III,17,2018-01-18_10:13,3,268,61_Caucasian_female_neutral_right.jpg,37_Caucasian_female_neutral_right.jpg,26_Caucasian_female_neutral_right.jpg,cue_right,target_F,target_right,cue_3,500ms,correct,0.4812260666576549
mGCP-III,17,2018-01-18_10:13,3,269,37_Caucasian_female_neutral_right.jpg,26_Caucasian_female_neutral_right.jpg,61_Caucasian_female_neutral_right.jpg,cue_right,target_F,target_left,cue_3,200ms,correct,0.5101781768607907
mGCP-III,17,2018-01-18_10:13,3,270,37_Caucasian_female_neutral_right.jpg,61_Caucasian_female_neutral_right.jpg,26_Caucasian_female_neutral_right.jpg,cue_right,target_E,target_right,cue_3,500ms,correct,0.48589214257481217
mGCP-III,17,2018-01-18_10:13,3,271,26_Caucasian_female_neutral_right.jpg,37_Caucasian_female_neutral_right.jpg,61_Caucasian_female_neutral_right.jpg,cue_right,target_E,target_right,cue_3,200ms,correct,0.4709536675372874
mGCP-III,17,2018-01-18_10:13,3,272,37_Caucasian_female_neutral_right.jpg,26_Caucasian_female_neutral_right.jpg,61_Caucasian_female_neutral_right.jpg,cue_right,target_E,target_right,cue_3,200ms,correct,0.38359126265277155
mGCP-III,17,2018-01-18_10:13,3,273,37_Caucasian_female_neutral_right.jpg,61_Caucasian_female_neutral_right.jpg,26_Caucasian_female_neutral_right.jpg,cue_right,target_E,target_left,cue_3,200ms,correct,0.666796905400588
mGCP-III,17,2018-01-18_10:13,3,274,26_Caucasian_female_neutral_right.jpg,37_Caucasian_female_neutral_right.jpg,61_Caucasian_female_neutral_right.jpg,cue_right,target_E,target_left,cue_3,500ms,correct,0.6022319416224491
mGCP-III,17,2018-01-18_10:13,3,275,61_Caucasian_female_neutral_right.jpg,26_Caucasian_female_neutral_right.jpg,37_Caucasian_female_neutral_right.jpg,cue_right,target_F,target_right,cue_3,200ms,correct,0.5695441262396344
mGCP-III,17,2018-01-18_10:13,3,276,37_Caucasian_female_neutral_left.jpg,61_Caucasian_female_neutral_left.jpg,26_Caucasian_female_neutral_left.jpg,cue_left,target_F,target_right,cue_3,500ms,correct,0.3930802540562581
mGCP-III,17,2018-01-18_10:13,3,277,61_Caucasian_female_neutral_left.jpg,26_Caucasian_female_neutral_left.jpg,37_Caucasian_female_neutral_left.jpg,cue_left,target_F,target_left,cue_3,500ms,correct,0.565207926995754
mGCP-III,17,2018-01-18_10:13,3,278,37_Caucasian_female_neutral_left.jpg,26_Caucasian_female_neutral_left.jpg,61_Caucasian_female_neutral_left.jpg,cue_left,target_E,target_right,cue_3,200ms,correct,0.586358750166255
mGCP-III,17,2018-01-18_10:13,3,279,61_Caucasian_female_neutral_left.jpg,26_Caucasian_female_neutral_left.jpg,37_Caucasian_female_neutral_left.jpg,cue_left,target_E,target_left,cue_3,200ms,correct,0.47648216354809847
mGCP-III,17,2018-01-18_10:13,3,280,26_Caucasian_female_neutral_right.jpg,61_Caucasian_female_neutral_right.jpg,37_Caucasian_female_neutral_right.jpg,cue_right,target_F,target_left,cue_3,200ms,99,99
mGCP-III,17,2018-01-18_10:13,3,281,61_Caucasian_female_neutral_left.jpg,37_Caucasian_female_neutral_left.jpg,26_Caucasian_female_neutral_left.jpg,cue_left,target_E,target_left,cue_3,200ms,correct,0.5334643095175124
mGCP-III,17,2018-01-18_10:14,3,282,61_Caucasian_female_neutral_right.jpg,37_Caucasian_female_neutral_right.jpg,26_Caucasian_female_neutral_right.jpg,cue_right,target_E,target_right,cue_3,200ms,correct,0.5366082119935527
mGCP-III,17,2018-01-18_10:14,3,283,37_Caucasian_female_neutral_left.jpg,26_Caucasian_female_neutral_left.jpg,61_Caucasian_female_neutral_left.jpg,cue_left,target_F,target_left,cue_3,200ms,correct,0.44086140873514523
mGCP-III,17,2018-01-18_10:14,3,284,37_Caucasian_female_neutral_left.jpg,61_Caucasian_female_neutral_left.jpg,26_Caucasian_female_neutral_left.jpg,cue_left,target_E,target_right,cue_3,200ms,correct,0.4479571152423887
mGCP-III,17,2018-01-18_10:14,3,285,37_Caucasian_female_neutral_left.jpg,61_Caucasian_female_neutral_left.jpg,26_Caucasian_female_neutral_left.jpg,cue_left,target_F,target_right,cue_3,200ms,incorrect,0.4298411574673082
mGCP-III,17,2018-01-18_10:14,3,286,61_Caucasian_female_neutral_left.jpg,37_Caucasian_female_neutral_left.jpg,26_Caucasian_female_neutral_left.jpg,cue_left,target_E,target_left,cue_3,500ms,correct,0.5996043850291244
mGCP-III,17,2018-01-18_10:14,3,287,26_Caucasian_female_neutral_left.jpg,37_Caucasian_female_neutral_left.jpg,61_Caucasian_female_neutral_left.jpg,cue_left,target_E,target_left,cue_3,200ms,correct,0.4944302200219681
mGCP-III,17,2018-01-18_10:14,3,288,37_Caucasian_female_neutral_right.jpg,26_Caucasian_female_neutral_right.jpg,61_Caucasian_female_neutral_right.jpg,cue_right,target_E,target_left,cue_3,200ms,correct,0.49360059006448864
mGCP-III,17,2018-01-18_10:14,4,289,99,37_Caucasian_female_neutral_right.jpg,99,cue_right,target_F,target_right,cue_1,500ms,incorrect,0.6939767679905344
mGCP-III,17,2018-01-18_10:14,4,290,99,61_Caucasian_female_neutral_right.jpg,99,cue_right,target_E,target_right,cue_1,200ms,correct,0.6874384938028015
mGCP-III,17,2018-01-18_10:14,4,291,99,37_Caucasian_female_neutral_left.jpg,99,cue_left,target_F,target_right,cue_1,500ms,correct,0.5542066386988154
mGCP-III,17,2018-01-18_10:14,4,292,99,26_Caucasian_female_neutral_right.jpg,99,cue_right,target_F,target_left,cue_1,200ms,correct,0.5646339020777305
mGCP-III,17,2018-01-18_10:14,4,293,99,26_Caucasian_female_neutral_left.jpg,99,cue_left,target_E,target_right,cue_1,200ms,correct,0.5113076587877003
mGCP-III,17,2018-01-18_10:14,4,294,99,37_Caucasian_female_neutral_right.jpg,99,cue_right,target_F,target_right,cue_1,200ms,correct,0.46871524690050137
mGCP-III,17,2018-01-18_10:14,4,295,99,26_Caucasian_female_neutral_left.jpg,99,cue_left,target_E,target_left,cue_1,200ms,incorrect,0.4421184956518118
mGCP-III,17,2018-01-18_10:14,4,296,99,37_Caucasian_female_neutral_right.jpg,99,cue_right,target_E,target_right,cue_1,200ms,99,99
mGCP-III,17,2018-01-18_10:14,4,297,99,61_Caucasian_female_neutral_right.jpg,99,cue_right,target_E,target_right,cue_1,500ms,correct,0.3835316083086582
mGCP-III,17,2018-01-18_10:14,4,298,99,61_Caucasian_female_neutral_right.jpg,99,cue_right,target_E,target_left,cue_1,200ms,correct,0.4995178269700773
mGCP-III,17,2018-01-18_10:14,4,299,99,61_Caucasian_female_neutral_left.jpg,99,cue_left,target_F,target_right,cue_1,200ms,correct,0.5280989740640507
mGCP-III,17,2018-01-18_10:14,4,300,99,26_Caucasian_female_neutral_right.jpg,99,cue_right,target_E,target_left,cue_1,500ms,incorrect,0.4455480278702453
mGCP-III,17,2018-01-18_10:14,4,301,99,26_Caucasian_female_neutral_right.jpg,99,cue_right,target_E,target_right,cue_1,500ms,correct,0.6221517519607005
mGCP-III,17,2018-01-18_10:14,4,302,99,61_Caucasian_female_neutral_left.jpg,99,cue_left,target_E,target_right,cue_1,200ms,correct,0.41211394058791484
mGCP-III,17,2018-01-18_10:14,4,303,99,61_Caucasian_female_neutral_left.jpg,99,cue_left,target_F,target_left,cue_1,500ms,correct,0.44952709117114864
mGCP-III,17,2018-01-18_10:14,4,304,99,26_Caucasian_female_neutral_left.jpg,99,cue_left,target_F,target_right,cue_1,200ms,correct,0.599081323093742
mGCP-III,17,2018-01-18_10:14,4,305,99,26_Caucasian_female_neutral_right.jpg,99,cue_right,target_F,target_left,cue_1,200ms,correct,0.38197387929812976
mGCP-III,17,2018-01-18_10:14,4,306,99,26_Caucasian_female_neutral_left.jpg,99,cue_left,target_E,target_right,cue_1,500ms,correct,0.44132323607846047
mGCP-III,17,2018-01-18_10:14,4,307,99,61_Caucasian_female_neutral_left.jpg,99,cue_left,target_E,target_left,cue_1,200ms,correct,0.6193353557864612
mGCP-III,17,2018-01-18_10:14,4,308,99,37_Caucasian_female_neutral_left.jpg,99,cue_left,target_E,target_left,cue_1,500ms,correct,0.550367427304991
mGCP-III,17,2018-01-18_10:14,4,309,99,26_Caucasian_female_neutral_right.jpg,99,cue_right,target_F,target_right,cue_1,500ms,correct,0.4836367342759331
mGCP-III,17,2018-01-18_10:15,4,310,99,61_Caucasian_female_neutral_left.jpg,99,cue_left,target_F,target_right,cue_1,500ms,correct,0.4858395993442173
mGCP-III,17,2018-01-18_10:15,4,311,99,37_Caucasian_female_neutral_left.jpg,99,cue_left,target_E,target_right,cue_1,500ms,correct,0.6270185193161524
mGCP-III,17,2018-01-18_10:15,4,312,99,26_Caucasian_female_neutral_right.jpg,99,cue_right,target_E,target_left,cue_1,200ms,correct,0.628970520087023
mGCP-III,17,2018-01-18_10:15,4,313,99,61_Caucasian_female_neutral_right.jpg,99,cue_right,target_F,target_right,cue_1,200ms,correct,0.6203810845945554
mGCP-III,17,2018-01-18_10:15,4,314,99,37_Caucasian_female_neutral_left.jpg,99,cue_left,target_E,target_left,cue_1,500ms,correct,0.5423646587123585
mGCP-III,17,2018-01-18_10:15,4,315,99,61_Caucasian_female_neutral_left.jpg,99,cue_left,target_F,target_right,cue_1,500ms,correct,0.694015484054944
mGCP-III,17,2018-01-18_10:15,4,316,99,26_Caucasian_female_neutral_left.jpg,99,cue_left,target_E,target_left,cue_1,200ms,correct,0.5267893439167892
mGCP-III,17,2018-01-18_10:15,4,317,99,61_Caucasian_female_neutral_right.jpg,99,cue_right,target_E,target_right,cue_1,500ms,incorrect,0.3584048823322519
mGCP-III,17,2018-01-18_10:15,4,318,99,37_Caucasian_female_neutral_right.jpg,99,cue_right,target_F,target_right,cue_1,200ms,correct,0.5383065830346823
mGCP-III,17,2018-01-18_10:15,4,319,99,61_Caucasian_female_neutral_left.jpg,99,cue_left,target_E,target_left,cue_1,200ms,correct,0.39020578378494974
mGCP-III,17,2018-01-18_10:15,4,320,99,61_Caucasian_female_neutral_right.jpg,99,cue_right,target_E,target_left,cue_1,200ms,correct,0.5253023309833225
mGCP-III,17,2018-01-18_10:15,4,321,99,26_Caucasian_female_neutral_right.jpg,99,cue_right,target_F,target_left,cue_1,500ms,correct,0.5393866822269047
mGCP-III,17,2018-01-18_10:15,4,322,99,61_Caucasian_female_neutral_right.jpg,99,cue_right,target_F,target_right,cue_1,500ms,correct,0.43234822018712293
mGCP-III,17,2018-01-18_10:15,4,323,99,61_Caucasian_female_neutral_right.jpg,99,cue_right,target_F,target_left,cue_1,200ms,correct,0.4795237449970955
mGCP-III,17,2018-01-18_10:15,4,324,99,37_Caucasian_female_neutral_right.jpg,99,cue_right,target_F,target_left,cue_1,500ms,correct,0.4876825630353778
mGCP-III,17,2018-01-18_10:15,4,325,99,37_Caucasian_female_neutral_right.jpg,99,cue_right,target_F,target_right,cue_1,500ms,correct,0.4721317420762716
mGCP-III,17,2018-01-18_10:15,4,326,99,61_Caucasian_female_neutral_left.jpg,99,cue_left,target_F,target_left,cue_1,200ms,correct,0.4941995038816458
mGCP-III,17,2018-01-18_10:15,4,327,99,26_Caucasian_female_neutral_left.jpg,99,cue_left,target_F,target_left,cue_1,200ms,correct,0.42958476230523956
mGCP-III,17,2018-01-18_10:15,4,328,99,26_Caucasian_female_neutral_right.jpg,99,cue_right,target_F,target_right,cue_1,200ms,correct,0.4363233328685965
mGCP-III,17,2018-01-18_10:15,4,329,99,37_Caucasian_female_neutral_left.jpg,99,cue_left,target_F,target_right,cue_1,500ms,correct,0.43174970143263636
mGCP-III,17,2018-01-18_10:15,4,330,99,37_Caucasian_female_neutral_right.jpg,99,cue_right,target_F,target_left,cue_1,200ms,correct,0.5279200110308011
mGCP-III,17,2018-01-18_10:15,4,331,99,26_Caucasian_female_neutral_right.jpg,99,cue_right,target_F,target_right,cue_1,200ms,correct,0.39442860026792914
mGCP-III,17,2018-01-18_10:15,4,332,99,37_Caucasian_female_neutral_right.jpg,99,cue_right,target_F,target_left,cue_1,200ms,correct,0.4164382879762343
mGCP-III,17,2018-01-18_10:15,4,333,99,37_Caucasian_female_neutral_left.jpg,99,cue_left,target_F,target_right,cue_1,200ms,correct,0.49911920952854416
mGCP-III,17,2018-01-18_10:15,4,334,99,37_Caucasian_female_neutral_right.jpg,99,cue_right,target_E,target_left,cue_1,500ms,correct,0.4951662203129672
mGCP-III,17,2018-01-18_10:15,4,335,99,37_Caucasian_female_neutral_left.jpg,99,cue_left,target_E,target_left,cue_1,200ms,correct,0.40969537173168646
mGCP-III,17,2018-01-18_10:15,4,336,99,26_Caucasian_female_neutral_right.jpg,99,cue_right,target_E,target_right,cue_1,200ms,correct,0.4244051059376943
mGCP-III,17,2018-01-18_10:15,4,337,99,61_Caucasian_female_neutral_left.jpg,99,cue_left,target_E,target_right,cue_1,500ms,correct,0.48864493378550833
mGCP-III,17,2018-01-18_10:15,4,338,99,37_Caucasian_female_neutral_left.jpg,99,cue_left,target_E,target_left,cue_1,200ms,correct,0.6024950528380941
mGCP-III,17,2018-01-18_10:15,4,339,99,26_Caucasian_female_neutral_left.jpg,99,cue_left,target_E,target_left,cue_1,500ms,correct,0.5288685546147462
mGCP-III,17,2018-01-18_10:15,4,340,99,37_Caucasian_female_neutral_right.jpg,99,cue_right,target_F,target_left,cue_1,500ms,correct,0.6349075100870323
mGCP-III,17,2018-01-18_10:16,4,341,99,61_Caucasian_female_neutral_left.jpg,99,cue_left,target_E,target_right,cue_1,500ms,correct,0.5283640605885012
mGCP-III,17,2018-01-18_10:16,4,342,99,61_Caucasian_female_neutral_right.jpg,99,cue_right,target_E,target_left,cue_1,500ms,correct,0.469089765566423
mGCP-III,17,2018-01-18_10:16,4,343,99,26_Caucasian_female_neutral_left.jpg,99,cue_left,target_E,target_right,cue_1,500ms,correct,0.5538901941299628
mGCP-III,17,2018-01-18_10:16,4,344,99,26_Caucasian_female_neutral_left.jpg,99,cue_left,target_F,target_right,cue_1,500ms,correct,0.583582255242618
mGCP-III,17,2018-01-18_10:16,4,345,99,61_Caucasian_female_neutral_left.jpg,99,cue_left,target_E,target_left,cue_1,500ms,correct,0.6124541678827882
mGCP-III,17,2018-01-18_10:16,4,346,99,26_Caucasian_female_neutral_left.jpg,99,cue_left,target_F,target_left,cue_1,200ms,correct,0.5593503444351882
mGCP-III,17,2018-01-18_10:16,4,347,99,26_Caucasian_female_neutral_left.jpg,99,cue_left,target_F,target_right,cue_1,500ms,correct,0.5181754145878585
mGCP-III,17,2018-01-18_10:16,4,348,99,37_Caucasian_female_neutral_left.jpg,99,cue_left,target_E,target_right,cue_1,200ms,correct,0.601160533791699
mGCP-III,17,2018-01-18_10:16,4,349,99,61_Caucasian_female_neutral_right.jpg,99,cue_right,target_F,target_left,cue_1,500ms,correct,0.533107568635387
mGCP-III,17,2018-01-18_10:16,4,350,99,26_Caucasian_female_neutral_right.jpg,99,cue_right,target_F,target_right,cue_1,500ms,correct,0.41583028773584374
mGCP-III,17,2018-01-18_10:16,4,351,99,61_Caucasian_female_neutral_right.jpg,99,cue_right,target_F,target_left,cue_1,200ms,correct,0.4227189818147963
mGCP-III,17,2018-01-18_10:16,4,352,99,61_Caucasian_female_neutral_left.jpg,99,cue_left,target_E,target_right,cue_1,200ms,correct,0.5965695196318848
mGCP-III,17,2018-01-18_10:16,4,353,99,26_Caucasian_female_neutral_left.jpg,99,cue_left,target_E,target_right,cue_1,200ms,correct,0.4199535486241075
mGCP-III,17,2018-01-18_10:16,4,354,99,37_Caucasian_female_neutral_right.jpg,99,cue_right,target_E,target_right,cue_1,500ms,correct,0.5632756793193039
mGCP-III,17,2018-01-18_10:16,4,355,99,37_Caucasian_female_neutral_right.jpg,99,cue_right,target_E,target_left,cue_1,200ms,correct,0.6525628257040808
mGCP-III,17,2018-01-18_10:16,4,356,99,26_Caucasian_female_neutral_right.jpg,99,cue_right,target_E,target_right,cue_1,200ms,correct,0.4434221998708381
mGCP-III,17,2018-01-18_10:16,4,357,99,26_Caucasian_female_neutral_right.jpg,99,cue_right,target_E,target_left,cue_1,500ms,correct,0.471868235799775
mGCP-III,17,2018-01-18_10:16,4,358,99,37_Caucasian_female_neutral_right.jpg,99,cue_right,target_E,target_left,cue_1,500ms,correct,0.44583879341826105
mGCP-III,17,2018-01-18_10:16,4,359,99,61_Caucasian_female_neutral_left.jpg,99,cue_left,target_E,target_left,cue_1,500ms,correct,0.5469118210021406
mGCP-III,17,2018-01-18_10:16,4,360,99,37_Caucasian_female_neutral_left.jpg,99,cue_left,target_F,target_left,cue_1,200ms,correct,0.6485699352379015
mGCP-III,17,2018-01-18_10:16,4,361,99,37_Caucasian_female_neutral_left.jpg,99,cue_left,target_F,target_left,cue_1,500ms,correct,0.5774113886072882
mGCP-III,17,2018-01-18_10:16,4,362,99,37_Caucasian_female_neutral_left.jpg,99,cue_left,target_F,target_left,cue_1,500ms,correct,0.5651573590739645
mGCP-III,17,2018-01-18_10:16,4,363,99,26_Caucasian_female_neutral_right.jpg,99,cue_right,target_E,target_right,cue_1,500ms,correct,0.43956481563054695
mGCP-III,17,2018-01-18_10:16,4,364,99,37_Caucasian_female_neutral_right.jpg,99,cue_right,target_E,target_right,cue_1,500ms,correct,0.5039946682454683
mGCP-III,17,2018-01-18_10:16,4,365,99,37_Caucasian_female_neutral_left.jpg,99,cue_left,target_E,target_right,cue_1,200ms,correct,0.49426350390695006
mGCP-III,17,2018-01-18_10:16,4,366,99,37_Caucasian_female_neutral_left.jpg,99,cue_left,target_F,target_right,cue_1,200ms,correct,0.5581201217264606
mGCP-III,17,2018-01-18_10:16,4,367,99,26_Caucasian_female_neutral_left.jpg,99,cue_left,target_F,target_left,cue_1,500ms,correct,0.5087903244602785
mGCP-III,17,2018-01-18_10:16,4,368,99,37_Caucasian_female_neutral_left.jpg,99,cue_left,target_F,target_left,cue_1,200ms,correct,0.4226703892027217
mGCP-III,17,2018-01-18_10:16,4,369,99,26_Caucasian_female_neutral_left.jpg,99,cue_left,target_F,target_left,cue_1,500ms,correct,0.42125053679046687
mGCP-III,17,2018-01-18_10:16,4,370,99,26_Caucasian_female_neutral_left.jpg,99,cue_left,target_F,target_right,cue_1,200ms,correct,0.564306000713259
mGCP-III,17,2018-01-18_10:16,4,371,99,26_Caucasian_female_neutral_left.jpg,99,cue_left,target_E,target_left,cue_1,500ms,incorrect,0.3518705587639488
mGCP-III,17,2018-01-18_10:17,4,372,99,61_Caucasian_female_neutral_left.jpg,99,cue_left,target_F,target_right,cue_1,200ms,incorrect,0.5334070255430561
mGCP-III,17,2018-01-18_10:17,4,373,99,61_Caucasian_female_neutral_right.jpg,99,cue_right,target_F,target_left,cue_1,500ms,correct,0.4954700229018272
mGCP-III,17,2018-01-18_10:17,4,374,99,61_Caucasian_female_neutral_right.jpg,99,cue_right,target_F,target_right,cue_1,500ms,correct,0.5249534913391471
mGCP-III,17,2018-01-18_10:17,4,375,99,26_Caucasian_female_neutral_right.jpg,99,cue_right,target_E,target_left,cue_1,200ms,correct,0.5530099962506938
mGCP-III,17,2018-01-18_10:17,4,376,99,61_Caucasian_female_neutral_left.jpg,99,cue_left,target_F,target_left,cue_1,200ms,correct,0.6728761176800617
mGCP-III,17,2018-01-18_10:17,4,377,99,26_Caucasian_female_neutral_right.jpg,99,cue_right,target_F,target_left,cue_1,500ms,correct,0.5249902320947513
mGCP-III,17,2018-01-18_10:17,4,378,99,37_Caucasian_female_neutral_right.jpg,99,cue_right,target_E,target_right,cue_1,200ms,correct,0.537767718624309
mGCP-III,17,2018-01-18_10:17,4,379,99,37_Caucasian_female_neutral_left.jpg,99,cue_left,target_E,target_right,cue_1,500ms,correct,0.6129566866002278
mGCP-III,17,2018-01-18_10:17,4,380,99,61_Caucasian_female_neutral_right.jpg,99,cue_right,target_F,target_right,cue_1,200ms,correct,0.6139712055201016
mGCP-III,17,2018-01-18_10:17,4,381,99,61_Caucasian_female_neutral_left.jpg,99,cue_left,target_F,target_left,cue_1,500ms,correct,0.5274127515704095
mGCP-III,17,2018-01-18_10:17,4,382,99,37_Caucasian_female_neutral_right.jpg,99,cue_right,target_E,target_left,cue_1,200ms,correct,0.6043289301051118
mGCP-III,17,2018-01-18_10:17,4,383,99,61_Caucasian_female_neutral_right.jpg,99,cue_right,target_E,target_left,cue_1,500ms,99,99
mGCP-III,17,2018-01-18_10:17,4,384,99,61_Caucasian_female_neutral_right.jpg,99,cue_right,target_E,target_right,cue_1,200ms,correct,0.5020616304445866
