experiment,subject,date,block,trial,face_left,face_top,face_right,cue_dir,target_id,target_pos,cue_num,isi,correct_response,rt
mGCP-III,02,2018-01-11_12:03,1,1,99,37_Caucasian_female_neutral_right.jpg,99,cue_right,target_F,target_left,cue_1,200ms,correct,0.6367183302463673
mGCP-III,02,2018-01-11_12:03,1,2,99,61_Caucasian_female_neutral_left.jpg,99,cue_left,target_F,target_left,cue_1,200ms,correct,0.4983944678660919
mGCP-III,02,2018-01-11_12:03,1,3,99,61_Caucasian_female_neutral_right.jpg,99,cue_right,target_F,target_left,cue_1,500ms,correct,0.35601924426191545
mGCP-III,02,2018-01-11_12:04,1,4,99,26_Caucasian_female_neutral_left.jpg,99,cue_left,target_F,target_left,cue_1,200ms,correct,0.45091156615308137
mGCP-III,02,2018-01-11_12:04,1,5,99,61_Caucasian_female_neutral_right.jpg,99,cue_right,target_E,target_right,cue_1,500ms,correct,0.41982018356065964
mGCP-III,02,2018-01-11_12:04,1,6,99,37_Caucasian_female_neutral_left.jpg,99,cue_left,target_F,target_right,cue_1,200ms,correct,0.601219635531379
mGCP-III,02,2018-01-11_12:04,1,7,99,61_Caucasian_female_neutral_left.jpg,99,cue_left,target_E,target_right,cue_1,500ms,correct,0.6171979197624751
mGCP-III,02,2018-01-11_12:04,1,8,99,26_Caucasian_female_neutral_left.jpg,99,cue_left,target_F,target_right,cue_1,500ms,correct,0.6481289071634819
mGCP-III,02,2018-01-11_12:04,1,9,99,26_Caucasian_female_neutral_right.jpg,99,cue_right,target_F,target_left,cue_1,200ms,correct,0.40761197638494195
mGCP-III,02,2018-01-11_12:04,1,10,99,61_Caucasian_female_neutral_left.jpg,99,cue_left,target_E,target_right,cue_1,500ms,incorrect,0.21643592409600387
mGCP-III,02,2018-01-11_12:04,1,11,99,26_Caucasian_female_neutral_right.jpg,99,cue_right,target_F,target_right,cue_1,200ms,correct,0.4889702628897794
mGCP-III,02,2018-01-11_12:04,1,12,99,61_Caucasian_female_neutral_right.jpg,99,cue_right,target_E,target_right,cue_1,500ms,correct,0.32926327250424947
mGCP-III,02,2018-01-11_12:04,1,13,99,26_Caucasian_female_neutral_left.jpg,99,cue_left,target_F,target_right,cue_1,200ms,correct,0.4926585621014965
mGCP-III,02,2018-01-11_12:04,1,14,99,61_Caucasian_female_neutral_left.jpg,99,cue_left,target_E,target_left,cue_1,500ms,correct,0.4359647889104963
mGCP-III,02,2018-01-11_12:04,1,15,99,26_Caucasian_female_neutral_right.jpg,99,cue_right,target_F,target_right,cue_1,500ms,correct,0.3127966915926663
mGCP-III,02,2018-01-11_12:04,1,16,99,37_Caucasian_female_neutral_right.jpg,99,cue_right,target_F,target_left,cue_1,500ms,correct,0.3634258673973818
mGCP-III,02,2018-01-11_12:04,1,17,99,26_Caucasian_female_neutral_right.jpg,99,cue_right,target_E,target_left,cue_1,500ms,correct,0.471329162532129
mGCP-III,02,2018-01-11_12:04,1,18,99,61_Caucasian_female_neutral_left.jpg,99,cue_left,target_F,target_right,cue_1,200ms,correct,0.3965605108624004
mGCP-III,02,2018-01-11_12:04,1,19,99,37_Caucasian_female_neutral_right.jpg,99,cue_right,target_E,target_right,cue_1,500ms,correct,0.38849057855986757
mGCP-III,02,2018-01-11_12:04,1,20,99,37_Caucasian_female_neutral_left.jpg,99,cue_left,target_F,target_right,cue_1,200ms,correct,0.43994898958953854
mGCP-III,02,2018-01-11_12:04,1,21,99,37_Caucasian_female_neutral_right.jpg,99,cue_right,target_E,target_left,cue_1,200ms,correct,0.46439977434056345
mGCP-III,02,2018-01-11_12:04,1,22,99,37_Caucasian_female_neutral_left.jpg,99,cue_left,target_E,target_right,cue_1,200ms,incorrect,0.4120994861041254
mGCP-III,02,2018-01-11_12:04,1,23,99,26_Caucasian_female_neutral_right.jpg,99,cue_right,target_E,target_right,cue_1,200ms,correct,0.47798121716914466
mGCP-III,02,2018-01-11_12:04,1,24,99,37_Caucasian_female_neutral_left.jpg,99,cue_left,target_E,target_left,cue_1,500ms,correct,0.4162989955948433
mGCP-III,02,2018-01-11_12:04,1,25,99,37_Caucasian_female_neutral_right.jpg,99,cue_right,target_E,target_left,cue_1,500ms,incorrect,0.39905532764714735
mGCP-III,02,2018-01-11_12:04,1,26,99,37_Caucasian_female_neutral_right.jpg,99,cue_right,target_E,target_right,cue_1,200ms,correct,0.5461203327358817
mGCP-III,02,2018-01-11_12:04,1,27,99,61_Caucasian_female_neutral_left.jpg,99,cue_left,target_F,target_left,cue_1,500ms,correct,0.5467674443589203
mGCP-III,02,2018-01-11_12:04,1,28,99,37_Caucasian_female_neutral_right.jpg,99,cue_right,target_E,target_right,cue_1,200ms,correct,0.510078032653837
mGCP-III,02,2018-01-11_12:04,1,29,99,37_Caucasian_female_neutral_right.jpg,99,cue_right,target_F,target_right,cue_1,500ms,correct,0.52480238996759
mGCP-III,02,2018-01-11_12:04,1,30,99,26_Caucasian_female_neutral_right.jpg,99,cue_right,target_E,target_right,cue_1,200ms,correct,0.3820190672740864
mGCP-III,02,2018-01-11_12:04,1,31,99,37_Caucasian_female_neutral_left.jpg,99,cue_left,target_E,target_right,cue_1,500ms,correct,0.344641457493708
mGCP-III,02,2018-01-11_12:04,1,32,99,61_Caucasian_female_neutral_right.jpg,99,cue_right,target_E,target_left,cue_1,500ms,correct,0.4791257119013608
mGCP-III,02,2018-01-11_12:04,1,33,99,61_Caucasian_female_neutral_left.jpg,99,cue_left,target_E,target_right,cue_1,200ms,correct,0.525546291788487
mGCP-III,02,2018-01-11_12:04,1,34,99,61_Caucasian_female_neutral_left.jpg,99,cue_left,target_E,target_left,cue_1,200ms,correct,0.4983838011921762
mGCP-III,02,2018-01-11_12:04,1,35,99,26_Caucasian_female_neutral_left.jpg,99,cue_left,target_F,target_right,cue_1,200ms,correct,0.57591946739376
mGCP-III,02,2018-01-11_12:04,1,36,99,37_Caucasian_female_neutral_left.jpg,99,cue_left,target_E,target_left,cue_1,200ms,correct,0.4839628515255754
mGCP-III,02,2018-01-11_12:05,1,37,99,26_Caucasian_female_neutral_right.jpg,99,cue_right,target_F,target_left,cue_1,500ms,correct,0.44639679715328384
mGCP-III,02,2018-01-11_12:05,1,38,99,37_Caucasian_female_neutral_right.jpg,99,cue_right,target_F,target_right,cue_1,500ms,correct,0.4638692060198082
mGCP-III,02,2018-01-11_12:05,1,39,99,26_Caucasian_female_neutral_left.jpg,99,cue_left,target_E,target_left,cue_1,500ms,correct,0.44583185843475803
mGCP-III,02,2018-01-11_12:05,1,40,99,26_Caucasian_female_neutral_left.jpg,99,cue_left,target_F,target_right,cue_1,500ms,correct,0.40480308527730813
mGCP-III,02,2018-01-11_12:05,1,41,99,61_Caucasian_female_neutral_left.jpg,99,cue_left,target_E,target_right,cue_1,200ms,correct,0.4425824731515604
mGCP-III,02,2018-01-11_12:05,1,42,99,37_Caucasian_female_neutral_left.jpg,99,cue_left,target_F,target_left,cue_1,200ms,correct,0.4548479643253813
mGCP-III,02,2018-01-11_12:05,1,43,99,61_Caucasian_female_neutral_right.jpg,99,cue_right,target_F,target_right,cue_1,500ms,correct,0.5573298230756336
mGCP-III,02,2018-01-11_12:05,1,44,99,37_Caucasian_female_neutral_left.jpg,99,cue_left,target_E,target_left,cue_1,500ms,correct,0.49387100750209356
mGCP-III,02,2018-01-11_12:05,1,45,99,37_Caucasian_female_neutral_left.jpg,99,cue_left,target_E,target_right,cue_1,200ms,correct,0.6082624065275013
mGCP-III,02,2018-01-11_12:05,1,46,99,37_Caucasian_female_neutral_left.jpg,99,cue_left,target_F,target_right,cue_1,500ms,correct,0.57200005688901
mGCP-III,02,2018-01-11_12:05,1,47,99,26_Caucasian_female_neutral_left.jpg,99,cue_left,target_E,target_right,cue_1,200ms,correct,0.5659571879168652
mGCP-III,02,2018-01-11_12:05,1,48,99,37_Caucasian_female_neutral_right.jpg,99,cue_right,target_F,target_left,cue_1,200ms,correct,0.4785058595589362
mGCP-III,02,2018-01-11_12:05,1,49,99,37_Caucasian_female_neutral_right.jpg,99,cue_right,target_E,target_left,cue_1,500ms,correct,0.4736576581999543
mGCP-III,02,2018-01-11_12:05,1,50,99,37_Caucasian_female_neutral_left.jpg,99,cue_left,target_E,target_left,cue_1,200ms,correct,0.5188705334294355
mGCP-III,02,2018-01-11_12:05,1,51,99,61_Caucasian_female_neutral_left.jpg,99,cue_left,target_F,target_left,cue_1,500ms,correct,0.503109533321549
mGCP-III,02,2018-01-11_12:05,1,52,99,61_Caucasian_female_neutral_right.jpg,99,cue_right,target_F,target_right,cue_1,200ms,correct,0.5520920905419189
mGCP-III,02,2018-01-11_12:05,1,53,99,37_Caucasian_female_neutral_right.jpg,99,cue_right,target_F,target_right,cue_1,200ms,correct,0.5416719341610587
mGCP-III,02,2018-01-11_12:05,1,54,99,61_Caucasian_female_neutral_right.jpg,99,cue_right,target_F,target_right,cue_1,500ms,correct,0.4495600589107198
mGCP-III,02,2018-01-11_12:05,1,55,99,26_Caucasian_female_neutral_left.jpg,99,cue_left,target_E,target_left,cue_1,200ms,correct,0.5542222650637996
mGCP-III,02,2018-01-11_12:05,1,56,99,61_Caucasian_female_neutral_right.jpg,99,cue_right,target_F,target_left,cue_1,200ms,correct,0.6890016308170743
mGCP-III,02,2018-01-11_12:05,1,57,99,61_Caucasian_female_neutral_left.jpg,99,cue_left,target_F,target_right,cue_1,500ms,incorrect,0.6652129700451042
mGCP-III,02,2018-01-11_12:05,1,58,99,61_Caucasian_female_neutral_left.jpg,99,cue_left,target_F,target_left,cue_1,200ms,correct,0.5189712742485426
mGCP-III,02,2018-01-11_12:05,1,59,99,61_Caucasian_female_neutral_right.jpg,99,cue_right,target_E,target_left,cue_1,200ms,correct,0.6678105029623111
mGCP-III,02,2018-01-11_12:05,1,60,99,26_Caucasian_female_neutral_left.jpg,99,cue_left,target_F,target_left,cue_1,500ms,correct,0.34305093771945394
mGCP-III,02,2018-01-11_12:05,1,61,99,26_Caucasian_female_neutral_right.jpg,99,cue_right,target_E,target_left,cue_1,500ms,correct,0.3260774922091514
mGCP-III,02,2018-01-11_12:05,1,62,99,26_Caucasian_female_neutral_right.jpg,99,cue_right,target_F,target_right,cue_1,500ms,correct,0.47682803107272775
mGCP-III,02,2018-01-11_12:05,1,63,99,26_Caucasian_female_neutral_left.jpg,99,cue_left,target_E,target_right,cue_1,500ms,correct,0.46221429113211343
mGCP-III,02,2018-01-11_12:05,1,64,99,37_Caucasian_female_neutral_right.jpg,99,cue_right,target_E,target_right,cue_1,500ms,correct,0.5430424043788662
mGCP-III,02,2018-01-11_12:05,1,65,99,61_Caucasian_female_neutral_left.jpg,99,cue_left,target_F,target_right,cue_1,200ms,correct,0.47583840066363337
mGCP-III,02,2018-01-11_12:05,1,66,99,61_Caucasian_female_neutral_right.jpg,99,cue_right,target_E,target_right,cue_1,200ms,correct,0.5131934919063497
mGCP-III,02,2018-01-11_12:05,1,67,99,37_Caucasian_female_neutral_right.jpg,99,cue_right,target_E,target_left,cue_1,200ms,correct,0.5165708772910875
mGCP-III,02,2018-01-11_12:05,1,68,99,61_Caucasian_female_neutral_right.jpg,99,cue_right,target_F,target_left,cue_1,500ms,correct,0.37788513808300195
mGCP-III,02,2018-01-11_12:06,1,69,99,37_Caucasian_female_neutral_left.jpg,99,cue_left,target_F,target_left,cue_1,500ms,correct,0.7979648774035013
mGCP-III,02,2018-01-11_12:06,1,70,99,61_Caucasian_female_neutral_right.jpg,99,cue_right,target_E,target_left,cue_1,200ms,correct,0.5523824611409509
mGCP-III,02,2018-01-11_12:06,1,71,99,26_Caucasian_female_neutral_left.jpg,99,cue_left,target_F,target_left,cue_1,500ms,correct,0.5368023994487885
mGCP-III,02,2018-01-11_12:06,1,72,99,37_Caucasian_female_neutral_left.jpg,99,cue_left,target_F,target_left,cue_1,200ms,correct,0.5147618882074312
mGCP-III,02,2018-01-11_12:06,1,73,99,26_Caucasian_female_neutral_left.jpg,99,cue_left,target_E,target_left,cue_1,500ms,correct,0.6153130787661212
mGCP-III,02,2018-01-11_12:06,1,74,99,61_Caucasian_female_neutral_left.jpg,99,cue_left,target_F,target_right,cue_1,500ms,correct,0.5691263756070839
mGCP-III,02,2018-01-11_12:06,1,75,99,61_Caucasian_female_neutral_right.jpg,99,cue_right,target_E,target_left,cue_1,500ms,correct,0.4925542657219921
mGCP-III,02,2018-01-11_12:06,1,76,99,61_Caucasian_female_neutral_left.jpg,99,cue_left,target_E,target_left,cue_1,500ms,correct,0.4931452785349393
mGCP-III,02,2018-01-11_12:06,1,77,99,37_Caucasian_female_neutral_left.jpg,99,cue_left,target_F,target_left,cue_1,500ms,correct,0.507377783605989
mGCP-III,02,2018-01-11_12:06,1,78,99,26_Caucasian_female_neutral_right.jpg,99,cue_right,target_E,target_right,cue_1,500ms,correct,0.4259590526089596
mGCP-III,02,2018-01-11_12:06,1,79,99,26_Caucasian_female_neutral_right.jpg,99,cue_right,target_E,target_left,cue_1,200ms,correct,0.5138532455130189
mGCP-III,02,2018-01-11_12:06,1,80,99,26_Caucasian_female_neutral_left.jpg,99,cue_left,target_E,target_right,cue_1,200ms,correct,0.5847250052156596
mGCP-III,02,2018-01-11_12:06,1,81,99,26_Caucasian_female_neutral_right.jpg,99,cue_right,target_F,target_left,cue_1,200ms,correct,0.3848990695496468
mGCP-III,02,2018-01-11_12:06,1,82,99,61_Caucasian_female_neutral_right.jpg,99,cue_right,target_E,target_right,cue_1,200ms,correct,0.4932033526529267
mGCP-III,02,2018-01-11_12:06,1,83,99,37_Caucasian_female_neutral_right.jpg,99,cue_right,target_F,target_right,cue_1,200ms,correct,0.45602959488678607
mGCP-III,02,2018-01-11_12:06,1,84,99,61_Caucasian_female_neutral_left.jpg,99,cue_left,target_E,target_left,cue_1,200ms,correct,0.4790391933165665
mGCP-III,02,2018-01-11_12:06,1,85,99,61_Caucasian_female_neutral_right.jpg,99,cue_right,target_F,target_right,cue_1,200ms,correct,0.4889410282976314
mGCP-III,02,2018-01-11_12:06,1,86,99,61_Caucasian_female_neutral_right.jpg,99,cue_right,target_F,target_left,cue_1,200ms,incorrect,0.4098136571374198
mGCP-III,02,2018-01-11_12:06,1,87,99,37_Caucasian_female_neutral_right.jpg,99,cue_right,target_F,target_left,cue_1,500ms,correct,0.4950297244686226
mGCP-III,02,2018-01-11_12:06,1,88,99,37_Caucasian_female_neutral_left.jpg,99,cue_left,target_F,target_right,cue_1,500ms,correct,0.5676713621105591
mGCP-III,02,2018-01-11_12:06,1,89,99,26_Caucasian_female_neutral_right.jpg,99,cue_right,target_F,target_left,cue_1,500ms,correct,0.47616077128805046
mGCP-III,02,2018-01-11_12:06,1,90,99,26_Caucasian_female_neutral_right.jpg,99,cue_right,target_E,target_left,cue_1,200ms,correct,0.694873042863037
mGCP-III,02,2018-01-11_12:06,1,91,99,26_Caucasian_female_neutral_left.jpg,99,cue_left,target_F,target_left,cue_1,200ms,correct,0.44766376111692807
mGCP-III,02,2018-01-11_12:06,1,92,99,26_Caucasian_female_neutral_right.jpg,99,cue_right,target_E,target_right,cue_1,500ms,correct,0.4732155837755272
mGCP-III,02,2018-01-11_12:06,1,93,99,26_Caucasian_female_neutral_right.jpg,99,cue_right,target_F,target_right,cue_1,200ms,correct,0.5493965822388418
mGCP-III,02,2018-01-11_12:06,1,94,99,26_Caucasian_female_neutral_left.jpg,99,cue_left,target_E,target_left,cue_1,200ms,incorrect,0.46720273951905256
mGCP-III,02,2018-01-11_12:06,1,95,99,37_Caucasian_female_neutral_left.jpg,99,cue_left,target_E,target_right,cue_1,500ms,correct,0.5945640253339661
mGCP-III,02,2018-01-11_12:06,1,96,99,26_Caucasian_female_neutral_left.jpg,99,cue_left,target_E,target_right,cue_1,500ms,correct,0.5923516779075726
mGCP-III,02,2018-01-11_12:07,2,97,61_Caucasian_female_neutral_left.jpg,37_Caucasian_female_neutral_left.jpg,26_Caucasian_female_neutral_left.jpg,cue_left,target_E,target_right,cue_3,500ms,correct,0.7097376471992902
mGCP-III,02,2018-01-11_12:07,2,98,37_Caucasian_female_neutral_left.jpg,26_Caucasian_female_neutral_left.jpg,61_Caucasian_female_neutral_left.jpg,cue_left,target_E,target_left,cue_3,500ms,correct,0.4963784662741091
mGCP-III,02,2018-01-11_12:07,2,99,37_Caucasian_female_neutral_left.jpg,61_Caucasian_female_neutral_left.jpg,26_Caucasian_female_neutral_left.jpg,cue_left,target_E,target_right,cue_3,500ms,correct,0.3440152841612871
mGCP-III,02,2018-01-11_12:07,2,100,37_Caucasian_female_neutral_right.jpg,26_Caucasian_female_neutral_right.jpg,61_Caucasian_female_neutral_right.jpg,cue_right,target_E,target_left,cue_3,200ms,correct,0.5362497076530417
mGCP-III,02,2018-01-11_12:07,2,101,61_Caucasian_female_neutral_right.jpg,37_Caucasian_female_neutral_right.jpg,26_Caucasian_female_neutral_right.jpg,cue_right,target_E,target_left,cue_3,500ms,correct,0.37781284172888263
mGCP-III,02,2018-01-11_12:07,2,102,37_Caucasian_female_neutral_left.jpg,26_Caucasian_female_neutral_left.jpg,61_Caucasian_female_neutral_left.jpg,cue_left,target_F,target_right,cue_3,500ms,incorrect,0.3612277422053012
mGCP-III,02,2018-01-11_12:07,2,103,37_Caucasian_female_neutral_left.jpg,61_Caucasian_female_neutral_left.jpg,26_Caucasian_female_neutral_left.jpg,cue_left,target_F,target_left,cue_3,200ms,correct,0.5090615380231611
mGCP-III,02,2018-01-11_12:07,2,104,37_Caucasian_female_neutral_left.jpg,26_Caucasian_female_neutral_left.jpg,61_Caucasian_female_neutral_left.jpg,cue_left,target_E,target_left,cue_3,200ms,correct,0.5273513302545325
mGCP-III,02,2018-01-11_12:07,2,105,37_Caucasian_female_neutral_right.jpg,26_Caucasian_female_neutral_right.jpg,61_Caucasian_female_neutral_right.jpg,cue_right,target_E,target_left,cue_3,500ms,correct,0.42437682913623576
mGCP-III,02,2018-01-11_12:07,2,106,61_Caucasian_female_neutral_right.jpg,26_Caucasian_female_neutral_right.jpg,37_Caucasian_female_neutral_right.jpg,cue_right,target_F,target_left,cue_3,500ms,correct,0.49572503365925513
mGCP-III,02,2018-01-11_12:07,2,107,26_Caucasian_female_neutral_right.jpg,61_Caucasian_female_neutral_right.jpg,37_Caucasian_female_neutral_right.jpg,cue_right,target_E,target_left,cue_3,200ms,correct,0.6040557859196269
mGCP-III,02,2018-01-11_12:07,2,108,26_Caucasian_female_neutral_right.jpg,37_Caucasian_female_neutral_right.jpg,61_Caucasian_female_neutral_right.jpg,cue_right,target_F,target_right,cue_3,200ms,correct,0.4153579578141944
mGCP-III,02,2018-01-11_12:07,2,109,61_Caucasian_female_neutral_right.jpg,26_Caucasian_female_neutral_right.jpg,37_Caucasian_female_neutral_right.jpg,cue_right,target_F,target_right,cue_3,200ms,correct,0.412951239863105
mGCP-III,02,2018-01-11_12:07,2,110,37_Caucasian_female_neutral_left.jpg,61_Caucasian_female_neutral_left.jpg,26_Caucasian_female_neutral_left.jpg,cue_left,target_F,target_left,cue_3,500ms,correct,0.3873053924398846
mGCP-III,02,2018-01-11_12:07,2,111,37_Caucasian_female_neutral_left.jpg,26_Caucasian_female_neutral_left.jpg,61_Caucasian_female_neutral_left.jpg,cue_left,target_E,target_right,cue_3,500ms,correct,0.4253810768459516
mGCP-III,02,2018-01-11_12:07,2,112,26_Caucasian_female_neutral_left.jpg,37_Caucasian_female_neutral_left.jpg,61_Caucasian_female_neutral_left.jpg,cue_left,target_F,target_left,cue_3,500ms,correct,0.35023040018131724
mGCP-III,02,2018-01-11_12:07,2,113,37_Caucasian_female_neutral_left.jpg,26_Caucasian_female_neutral_left.jpg,61_Caucasian_female_neutral_left.jpg,cue_left,target_E,target_right,cue_3,200ms,correct,0.436095159384422
mGCP-III,02,2018-01-11_12:07,2,114,26_Caucasian_female_neutral_left.jpg,61_Caucasian_female_neutral_left.jpg,37_Caucasian_female_neutral_left.jpg,cue_left,target_E,target_right,cue_3,200ms,correct,0.33629379657759273
mGCP-III,02,2018-01-11_12:07,2,115,26_Caucasian_female_neutral_right.jpg,61_Caucasian_female_neutral_right.jpg,37_Caucasian_female_neutral_right.jpg,cue_right,target_E,target_right,cue_3,500ms,correct,0.36568601733233663
mGCP-III,02,2018-01-11_12:07,2,116,37_Caucasian_female_neutral_left.jpg,61_Caucasian_female_neutral_left.jpg,26_Caucasian_female_neutral_left.jpg,cue_left,target_E,target_right,cue_3,200ms,correct,0.6165405365263723
mGCP-III,02,2018-01-11_12:07,2,117,26_Caucasian_female_neutral_left.jpg,37_Caucasian_female_neutral_left.jpg,61_Caucasian_female_neutral_left.jpg,cue_left,target_F,target_right,cue_3,200ms,correct,0.5694499314158747
mGCP-III,02,2018-01-11_12:07,2,118,37_Caucasian_female_neutral_left.jpg,61_Caucasian_female_neutral_left.jpg,26_Caucasian_female_neutral_left.jpg,cue_left,target_F,target_right,cue_3,200ms,incorrect,0.4481658849690575
mGCP-III,02,2018-01-11_12:07,2,119,26_Caucasian_female_neutral_right.jpg,61_Caucasian_female_neutral_right.jpg,37_Caucasian_female_neutral_right.jpg,cue_right,target_F,target_right,cue_3,500ms,correct,0.3773881500346761
mGCP-III,02,2018-01-11_12:07,2,120,61_Caucasian_female_neutral_left.jpg,26_Caucasian_female_neutral_left.jpg,37_Caucasian_female_neutral_left.jpg,cue_left,target_E,target_left,cue_3,500ms,correct,0.48841401553727337
mGCP-III,02,2018-01-11_12:07,2,121,26_Caucasian_female_neutral_right.jpg,61_Caucasian_female_neutral_right.jpg,37_Caucasian_female_neutral_right.jpg,cue_right,target_E,target_right,cue_3,200ms,correct,0.5776727527281764
mGCP-III,02,2018-01-11_12:07,2,122,61_Caucasian_female_neutral_right.jpg,37_Caucasian_female_neutral_right.jpg,26_Caucasian_female_neutral_right.jpg,cue_right,target_F,target_left,cue_3,200ms,correct,0.48340462886335445
mGCP-III,02,2018-01-11_12:07,2,123,61_Caucasian_female_neutral_left.jpg,26_Caucasian_female_neutral_left.jpg,37_Caucasian_female_neutral_left.jpg,cue_left,target_E,target_right,cue_3,500ms,correct,0.4217362344588764
mGCP-III,02,2018-01-11_12:07,2,124,37_Caucasian_female_neutral_left.jpg,26_Caucasian_female_neutral_left.jpg,61_Caucasian_female_neutral_left.jpg,cue_left,target_F,target_right,cue_3,200ms,correct,0.49268858681534766
mGCP-III,02,2018-01-11_12:07,2,125,37_Caucasian_female_neutral_right.jpg,61_Caucasian_female_neutral_right.jpg,26_Caucasian_female_neutral_right.jpg,cue_right,target_F,target_left,cue_3,500ms,correct,0.5432174168618076
mGCP-III,02,2018-01-11_12:07,2,126,26_Caucasian_female_neutral_right.jpg,37_Caucasian_female_neutral_right.jpg,61_Caucasian_female_neutral_right.jpg,cue_right,target_E,target_left,cue_3,500ms,correct,0.5854637712309341
mGCP-III,02,2018-01-11_12:08,2,127,61_Caucasian_female_neutral_right.jpg,37_Caucasian_female_neutral_right.jpg,26_Caucasian_female_neutral_right.jpg,cue_right,target_F,target_left,cue_3,500ms,correct,0.5645626189125323
mGCP-III,02,2018-01-11_12:08,2,128,61_Caucasian_female_neutral_right.jpg,37_Caucasian_female_neutral_right.jpg,26_Caucasian_female_neutral_right.jpg,cue_right,target_E,target_left,cue_3,200ms,correct,0.4960225153754436
mGCP-III,02,2018-01-11_12:08,2,129,26_Caucasian_female_neutral_right.jpg,61_Caucasian_female_neutral_right.jpg,37_Caucasian_female_neutral_right.jpg,cue_right,target_F,target_left,cue_3,500ms,correct,0.40314263952132023
mGCP-III,02,2018-01-11_12:08,2,130,26_Caucasian_female_neutral_right.jpg,37_Caucasian_female_neutral_right.jpg,61_Caucasian_female_neutral_right.jpg,cue_right,target_E,target_right,cue_3,500ms,correct,0.5079371914562216
mGCP-III,02,2018-01-11_12:08,2,131,37_Caucasian_female_neutral_left.jpg,61_Caucasian_female_neutral_left.jpg,26_Caucasian_female_neutral_left.jpg,cue_left,target_E,target_left,cue_3,200ms,correct,0.5676251398526801
mGCP-III,02,2018-01-11_12:08,2,132,37_Caucasian_female_neutral_right.jpg,26_Caucasian_female_neutral_right.jpg,61_Caucasian_female_neutral_right.jpg,cue_right,target_E,target_right,cue_3,500ms,correct,0.4146073399369925
mGCP-III,02,2018-01-11_12:08,2,133,61_Caucasian_female_neutral_left.jpg,26_Caucasian_female_neutral_left.jpg,37_Caucasian_female_neutral_left.jpg,cue_left,target_F,target_left,cue_3,500ms,correct,0.34507088993268553
mGCP-III,02,2018-01-11_12:08,2,134,26_Caucasian_female_neutral_left.jpg,37_Caucasian_female_neutral_left.jpg,61_Caucasian_female_neutral_left.jpg,cue_left,target_E,target_right,cue_3,200ms,correct,0.41036555880782544
mGCP-III,02,2018-01-11_12:08,2,135,26_Caucasian_female_neutral_left.jpg,61_Caucasian_female_neutral_left.jpg,37_Caucasian_female_neutral_left.jpg,cue_left,target_E,target_left,cue_3,500ms,incorrect,0.33131087905894674
mGCP-III,02,2018-01-11_12:08,2,136,37_Caucasian_female_neutral_right.jpg,61_Caucasian_female_neutral_right.jpg,26_Caucasian_female_neutral_right.jpg,cue_right,target_E,target_right,cue_3,200ms,correct,0.3505385485732404
mGCP-III,02,2018-01-11_12:08,2,137,37_Caucasian_female_neutral_right.jpg,61_Caucasian_female_neutral_right.jpg,26_Caucasian_female_neutral_right.jpg,cue_right,target_E,target_left,cue_3,500ms,incorrect,0.29387282478819543
mGCP-III,02,2018-01-11_12:08,2,138,61_Caucasian_female_neutral_left.jpg,37_Caucasian_female_neutral_left.jpg,26_Caucasian_female_neutral_left.jpg,cue_left,target_F,target_left,cue_3,500ms,correct,0.5279340467641305
mGCP-III,02,2018-01-11_12:08,2,139,26_Caucasian_female_neutral_left.jpg,61_Caucasian_female_neutral_left.jpg,37_Caucasian_female_neutral_left.jpg,cue_left,target_E,target_left,cue_3,200ms,correct,0.49561244097822055
mGCP-III,02,2018-01-11_12:08,2,140,61_Caucasian_female_neutral_right.jpg,26_Caucasian_female_neutral_right.jpg,37_Caucasian_female_neutral_right.jpg,cue_right,target_E,target_right,cue_3,200ms,correct,0.4844452222769178
mGCP-III,02,2018-01-11_12:08,2,141,26_Caucasian_female_neutral_right.jpg,37_Caucasian_female_neutral_right.jpg,61_Caucasian_female_neutral_right.jpg,cue_right,target_F,target_left,cue_3,500ms,correct,0.45889142430860375
mGCP-III,02,2018-01-11_12:08,2,142,26_Caucasian_female_neutral_left.jpg,37_Caucasian_female_neutral_left.jpg,61_Caucasian_female_neutral_left.jpg,cue_left,target_E,target_right,cue_3,500ms,correct,0.38050993027900404
mGCP-III,02,2018-01-11_12:08,2,143,61_Caucasian_female_neutral_left.jpg,26_Caucasian_female_neutral_left.jpg,37_Caucasian_female_neutral_left.jpg,cue_left,target_E,target_left,cue_3,200ms,incorrect,0.42464073057999485
mGCP-III,02,2018-01-11_12:08,2,144,61_Caucasian_female_neutral_right.jpg,26_Caucasian_female_neutral_right.jpg,37_Caucasian_female_neutral_right.jpg,cue_right,target_E,target_left,cue_3,500ms,correct,0.48990418955327186
mGCP-III,02,2018-01-11_12:08,2,145,37_Caucasian_female_neutral_right.jpg,26_Caucasian_female_neutral_right.jpg,61_Caucasian_female_neutral_right.jpg,cue_right,target_E,target_right,cue_3,200ms,correct,0.4564301877962862
mGCP-III,02,2018-01-11_12:08,2,146,26_Caucasian_female_neutral_right.jpg,61_Caucasian_female_neutral_right.jpg,37_Caucasian_female_neutral_right.jpg,cue_right,target_F,target_left,cue_3,200ms,correct,0.5273635771754925
mGCP-III,02,2018-01-11_12:08,2,147,61_Caucasian_female_neutral_left.jpg,26_Caucasian_female_neutral_left.jpg,37_Caucasian_female_neutral_left.jpg,cue_left,target_F,target_left,cue_3,200ms,correct,0.5076325986228767
mGCP-III,02,2018-01-11_12:08,2,148,37_Caucasian_female_neutral_right.jpg,61_Caucasian_female_neutral_right.jpg,26_Caucasian_female_neutral_right.jpg,cue_right,target_F,target_right,cue_3,500ms,correct,0.5889715270877787
mGCP-III,02,2018-01-11_12:08,2,149,37_Caucasian_female_neutral_left.jpg,26_Caucasian_female_neutral_left.jpg,61_Caucasian_female_neutral_left.jpg,cue_left,target_F,target_left,cue_3,200ms,correct,0.48539534648443805
mGCP-III,02,2018-01-11_12:08,2,150,37_Caucasian_female_neutral_left.jpg,61_Caucasian_female_neutral_left.jpg,26_Caucasian_female_neutral_left.jpg,cue_left,target_E,target_left,cue_3,500ms,correct,0.49436325480564847
mGCP-III,02,2018-01-11_12:08,2,151,37_Caucasian_female_neutral_right.jpg,61_Caucasian_female_neutral_right.jpg,26_Caucasian_female_neutral_right.jpg,cue_right,target_E,target_left,cue_3,200ms,correct,0.5937225431880506
mGCP-III,02,2018-01-11_12:08,2,152,26_Caucasian_female_neutral_left.jpg,61_Caucasian_female_neutral_left.jpg,37_Caucasian_female_neutral_left.jpg,cue_left,target_F,target_right,cue_3,500ms,correct,0.514773345006688
mGCP-III,02,2018-01-11_12:08,2,153,37_Caucasian_female_neutral_left.jpg,26_Caucasian_female_neutral_left.jpg,61_Caucasian_female_neutral_left.jpg,cue_left,target_F,target_left,cue_3,500ms,correct,0.6113814213385922
mGCP-III,02,2018-01-11_12:08,2,154,61_Caucasian_female_neutral_left.jpg,26_Caucasian_female_neutral_left.jpg,37_Caucasian_female_neutral_left.jpg,cue_left,target_F,target_right,cue_3,200ms,correct,0.47413884376510396
mGCP-III,02,2018-01-11_12:08,2,155,37_Caucasian_female_neutral_right.jpg,61_Caucasian_female_neutral_right.jpg,26_Caucasian_female_neutral_right.jpg,cue_right,target_E,target_right,cue_3,500ms,correct,0.5337110389809823
mGCP-III,02,2018-01-11_12:08,2,156,26_Caucasian_female_neutral_left.jpg,61_Caucasian_female_neutral_left.jpg,37_Caucasian_female_neutral_left.jpg,cue_left,target_E,target_right,cue_3,500ms,correct,0.6047491198023636
mGCP-III,02,2018-01-11_12:08,2,157,26_Caucasian_female_neutral_right.jpg,37_Caucasian_female_neutral_right.jpg,61_Caucasian_female_neutral_right.jpg,cue_right,target_F,target_left,cue_3,200ms,99,99
mGCP-III,02,2018-01-11_12:09,2,158,26_Caucasian_female_neutral_left.jpg,37_Caucasian_female_neutral_left.jpg,61_Caucasian_female_neutral_left.jpg,cue_left,target_E,target_left,cue_3,200ms,correct,0.48029628072799824
mGCP-III,02,2018-01-11_12:09,2,159,61_Caucasian_female_neutral_right.jpg,26_Caucasian_female_neutral_right.jpg,37_Caucasian_female_neutral_right.jpg,cue_right,target_F,target_right,cue_3,500ms,correct,0.5675141274186899
mGCP-III,02,2018-01-11_12:09,2,160,26_Caucasian_female_neutral_right.jpg,37_Caucasian_female_neutral_right.jpg,61_Caucasian_female_neutral_right.jpg,cue_right,target_E,target_right,cue_3,200ms,correct,0.4850346548428206
mGCP-III,02,2018-01-11_12:09,2,161,61_Caucasian_female_neutral_right.jpg,37_Caucasian_female_neutral_right.jpg,26_Caucasian_female_neutral_right.jpg,cue_right,target_F,target_right,cue_3,500ms,correct,0.43231006997302757
mGCP-III,02,2018-01-11_12:09,2,162,26_Caucasian_female_neutral_left.jpg,61_Caucasian_female_neutral_left.jpg,37_Caucasian_female_neutral_left.jpg,cue_left,target_F,target_left,cue_3,200ms,correct,0.5005143707767274
mGCP-III,02,2018-01-11_12:09,2,163,37_Caucasian_female_neutral_right.jpg,26_Caucasian_female_neutral_right.jpg,61_Caucasian_female_neutral_right.jpg,cue_right,target_F,target_left,cue_3,200ms,correct,0.43073100699621136
mGCP-III,02,2018-01-11_12:09,2,164,26_Caucasian_female_neutral_right.jpg,37_Caucasian_female_neutral_right.jpg,61_Caucasian_female_neutral_right.jpg,cue_right,target_E,target_left,cue_3,200ms,correct,0.5048351643126807
mGCP-III,02,2018-01-11_12:09,2,165,37_Caucasian_female_neutral_right.jpg,61_Caucasian_female_neutral_right.jpg,26_Caucasian_female_neutral_right.jpg,cue_right,target_F,target_left,cue_3,200ms,correct,0.5569699215557193
mGCP-III,02,2018-01-11_12:09,2,166,61_Caucasian_female_neutral_right.jpg,37_Caucasian_female_neutral_right.jpg,26_Caucasian_female_neutral_right.jpg,cue_right,target_E,target_right,cue_3,200ms,correct,0.497331750977537
mGCP-III,02,2018-01-11_12:09,2,167,37_Caucasian_female_neutral_right.jpg,26_Caucasian_female_neutral_right.jpg,61_Caucasian_female_neutral_right.jpg,cue_right,target_F,target_right,cue_3,200ms,correct,0.5045752134919894
mGCP-III,02,2018-01-11_12:09,2,168,61_Caucasian_female_neutral_left.jpg,37_Caucasian_female_neutral_left.jpg,26_Caucasian_female_neutral_left.jpg,cue_left,target_F,target_left,cue_3,200ms,correct,0.5337995328773104
mGCP-III,02,2018-01-11_12:09,2,169,61_Caucasian_female_neutral_left.jpg,37_Caucasian_female_neutral_left.jpg,26_Caucasian_female_neutral_left.jpg,cue_left,target_E,target_right,cue_3,200ms,correct,0.515026974837383
mGCP-III,02,2018-01-11_12:09,2,170,61_Caucasian_female_neutral_right.jpg,26_Caucasian_female_neutral_right.jpg,37_Caucasian_female_neutral_right.jpg,cue_right,target_F,target_left,cue_3,200ms,correct,0.40735202556243166
mGCP-III,02,2018-01-11_12:09,2,171,26_Caucasian_female_neutral_right.jpg,37_Caucasian_female_neutral_right.jpg,61_Caucasian_female_neutral_right.jpg,cue_right,target_F,target_right,cue_3,500ms,correct,0.5517965841354453
mGCP-III,02,2018-01-11_12:09,2,172,61_Caucasian_female_neutral_left.jpg,37_Caucasian_female_neutral_left.jpg,26_Caucasian_female_neutral_left.jpg,cue_left,target_E,target_left,cue_3,200ms,correct,0.5154070245189359
mGCP-III,02,2018-01-11_12:09,2,173,26_Caucasian_female_neutral_left.jpg,37_Caucasian_female_neutral_left.jpg,61_Caucasian_female_neutral_left.jpg,cue_left,target_F,target_right,cue_3,500ms,correct,0.4173257618385833
mGCP-III,02,2018-01-11_12:09,2,174,61_Caucasian_female_neutral_left.jpg,37_Caucasian_female_neutral_left.jpg,26_Caucasian_female_neutral_left.jpg,cue_left,target_F,target_right,cue_3,200ms,correct,0.45373783999093575
mGCP-III,02,2018-01-11_12:09,2,175,61_Caucasian_female_neutral_right.jpg,37_Caucasian_female_neutral_right.jpg,26_Caucasian_female_neutral_right.jpg,cue_right,target_F,target_right,cue_3,200ms,correct,0.38779447924571286
mGCP-III,02,2018-01-11_12:09,2,176,26_Caucasian_female_neutral_left.jpg,61_Caucasian_female_neutral_left.jpg,37_Caucasian_female_neutral_left.jpg,cue_left,target_F,target_right,cue_3,200ms,correct,0.40717385258176364
mGCP-III,02,2018-01-11_12:09,2,177,37_Caucasian_female_neutral_right.jpg,26_Caucasian_female_neutral_right.jpg,61_Caucasian_female_neutral_right.jpg,cue_right,target_F,target_right,cue_3,500ms,correct,0.4965795528532908
mGCP-III,02,2018-01-11_12:09,2,178,37_Caucasian_female_neutral_left.jpg,61_Caucasian_female_neutral_left.jpg,26_Caucasian_female_neutral_left.jpg,cue_left,target_F,target_right,cue_3,500ms,correct,0.31762553491353174
mGCP-III,02,2018-01-11_12:09,2,179,26_Caucasian_female_neutral_left.jpg,61_Caucasian_female_neutral_left.jpg,37_Caucasian_female_neutral_left.jpg,cue_left,target_F,target_left,cue_3,500ms,incorrect,0.4057966663094703
mGCP-III,02,2018-01-11_12:09,2,180,61_Caucasian_female_neutral_left.jpg,37_Caucasian_female_neutral_left.jpg,26_Caucasian_female_neutral_left.jpg,cue_left,target_F,target_right,cue_3,500ms,correct,0.31926701769225474
mGCP-III,02,2018-01-11_12:09,2,181,26_Caucasian_female_neutral_left.jpg,37_Caucasian_female_neutral_left.jpg,61_Caucasian_female_neutral_left.jpg,cue_left,target_E,target_left,cue_3,500ms,correct,0.48640275468824257
mGCP-III,02,2018-01-11_12:09,2,182,61_Caucasian_female_neutral_right.jpg,26_Caucasian_female_neutral_right.jpg,37_Caucasian_female_neutral_right.jpg,cue_right,target_E,target_left,cue_3,200ms,correct,0.6018667471544177
mGCP-III,02,2018-01-11_12:09,2,183,61_Caucasian_female_neutral_right.jpg,26_Caucasian_female_neutral_right.jpg,37_Caucasian_female_neutral_right.jpg,cue_right,target_E,target_right,cue_3,500ms,correct,0.44238652237982024
mGCP-III,02,2018-01-11_12:09,2,184,61_Caucasian_female_neutral_left.jpg,26_Caucasian_female_neutral_left.jpg,37_Caucasian_female_neutral_left.jpg,cue_left,target_F,target_right,cue_3,500ms,correct,0.5466588022973156
mGCP-III,02,2018-01-11_12:09,2,185,37_Caucasian_female_neutral_right.jpg,26_Caucasian_female_neutral_right.jpg,61_Caucasian_female_neutral_right.jpg,cue_right,target_F,target_left,cue_3,500ms,correct,0.4116937573871837
mGCP-III,02,2018-01-11_12:09,2,186,26_Caucasian_female_neutral_right.jpg,61_Caucasian_female_neutral_right.jpg,37_Caucasian_female_neutral_right.jpg,cue_right,target_F,target_right,cue_3,200ms,correct,0.5095162544330378
mGCP-III,02,2018-01-11_12:09,2,187,61_Caucasian_female_neutral_left.jpg,37_Caucasian_female_neutral_left.jpg,26_Caucasian_female_neutral_left.jpg,cue_left,target_E,target_left,cue_3,500ms,correct,0.4876637927209231
mGCP-III,02,2018-01-11_12:09,2,188,26_Caucasian_female_neutral_left.jpg,37_Caucasian_female_neutral_left.jpg,61_Caucasian_female_neutral_left.jpg,cue_left,target_F,target_left,cue_3,200ms,correct,0.4538370005629986
mGCP-III,02,2018-01-11_12:09,2,189,61_Caucasian_female_neutral_left.jpg,26_Caucasian_female_neutral_left.jpg,37_Caucasian_female_neutral_left.jpg,cue_left,target_E,target_right,cue_3,200ms,correct,0.5190945336053119
mGCP-III,02,2018-01-11_12:10,2,190,26_Caucasian_female_neutral_right.jpg,61_Caucasian_female_neutral_right.jpg,37_Caucasian_female_neutral_right.jpg,cue_right,target_E,target_left,cue_3,500ms,incorrect,0.36173776729810925
mGCP-III,02,2018-01-11_12:10,2,191,61_Caucasian_female_neutral_right.jpg,37_Caucasian_female_neutral_right.jpg,26_Caucasian_female_neutral_right.jpg,cue_right,target_E,target_right,cue_3,500ms,correct,0.40154224319485365
mGCP-III,02,2018-01-11_12:10,2,192,37_Caucasian_female_neutral_right.jpg,61_Caucasian_female_neutral_right.jpg,26_Caucasian_female_neutral_right.jpg,cue_right,target_F,target_right,cue_3,200ms,correct,0.5370481280369859
mGCP-III,02,2018-01-11_12:10,3,193,99,61_Caucasian_female_neutral_left.jpg,99,cue_left,target_F,target_left,cue_1,200ms,correct,0.596063285778655
mGCP-III,02,2018-01-11_12:10,3,194,99,61_Caucasian_female_neutral_left.jpg,99,cue_left,target_E,target_left,cue_1,200ms,correct,0.5211006586469011
mGCP-III,02,2018-01-11_12:10,3,195,99,26_Caucasian_female_neutral_left.jpg,99,cue_left,target_E,target_right,cue_1,200ms,correct,0.5294894060152728
mGCP-III,02,2018-01-11_12:10,3,196,99,37_Caucasian_female_neutral_right.jpg,99,cue_right,target_E,target_left,cue_1,500ms,correct,0.42160902448267734
mGCP-III,02,2018-01-11_12:10,3,197,99,37_Caucasian_female_neutral_left.jpg,99,cue_left,target_F,target_left,cue_1,200ms,correct,0.7581232656775683
mGCP-III,02,2018-01-11_12:10,3,198,99,26_Caucasian_female_neutral_left.jpg,99,cue_left,target_F,target_left,cue_1,500ms,correct,0.6050774163577444
mGCP-III,02,2018-01-11_12:10,3,199,99,61_Caucasian_female_neutral_left.jpg,99,cue_left,target_E,target_right,cue_1,200ms,correct,0.40615498758052127
mGCP-III,02,2018-01-11_12:10,3,200,99,37_Caucasian_female_neutral_left.jpg,99,cue_left,target_E,target_left,cue_1,500ms,correct,0.4124838814695977
mGCP-III,02,2018-01-11_12:10,3,201,99,61_Caucasian_female_neutral_right.jpg,99,cue_right,target_F,target_right,cue_1,500ms,correct,0.40384031908433826
mGCP-III,02,2018-01-11_12:10,3,202,99,26_Caucasian_female_neutral_right.jpg,99,cue_right,target_E,target_left,cue_1,200ms,correct,0.5747117627342959
mGCP-III,02,2018-01-11_12:10,3,203,99,37_Caucasian_female_neutral_right.jpg,99,cue_right,target_E,target_right,cue_1,200ms,correct,0.7585388709449035
mGCP-III,02,2018-01-11_12:10,3,204,99,26_Caucasian_female_neutral_left.jpg,99,cue_left,target_F,target_right,cue_1,200ms,correct,0.5657470149126311
mGCP-III,02,2018-01-11_12:10,3,205,99,61_Caucasian_female_neutral_right.jpg,99,cue_right,target_F,target_left,cue_1,200ms,correct,0.6098406793789763
mGCP-III,02,2018-01-11_12:10,3,206,99,37_Caucasian_female_neutral_left.jpg,99,cue_left,target_E,target_left,cue_1,200ms,correct,0.7584219325799495
mGCP-III,02,2018-01-11_12:10,3,207,99,26_Caucasian_female_neutral_left.jpg,99,cue_left,target_E,target_left,cue_1,500ms,correct,0.41785435484780464
mGCP-III,02,2018-01-11_12:10,3,208,99,61_Caucasian_female_neutral_left.jpg,99,cue_left,target_F,target_right,cue_1,200ms,correct,0.6128079903664911
mGCP-III,02,2018-01-11_12:10,3,209,99,61_Caucasian_female_neutral_right.jpg,99,cue_right,target_E,target_right,cue_1,200ms,incorrect,0.446285389658442
mGCP-III,02,2018-01-11_12:10,3,210,99,26_Caucasian_female_neutral_right.jpg,99,cue_right,target_F,target_right,cue_1,200ms,correct,0.4773566240837681
mGCP-III,02,2018-01-11_12:10,3,211,99,26_Caucasian_female_neutral_left.jpg,99,cue_left,target_E,target_left,cue_1,200ms,correct,0.38519299570725707
mGCP-III,02,2018-01-11_12:10,3,212,99,61_Caucasian_female_neutral_right.jpg,99,cue_right,target_E,target_right,cue_1,500ms,correct,0.41922956581220205
mGCP-III,02,2018-01-11_12:10,3,213,99,61_Caucasian_female_neutral_left.jpg,99,cue_left,target_F,target_right,cue_1,500ms,correct,0.4634200204800436
mGCP-III,02,2018-01-11_12:10,3,214,99,37_Caucasian_female_neutral_left.jpg,99,cue_left,target_F,target_right,cue_1,200ms,correct,0.3856575886675273
mGCP-III,02,2018-01-11_12:10,3,215,99,61_Caucasian_female_neutral_left.jpg,99,cue_left,target_F,target_left,cue_1,500ms,correct,0.5068539313415386
mGCP-III,02,2018-01-11_12:10,3,216,99,61_Caucasian_female_neutral_left.jpg,99,cue_left,target_E,target_left,cue_1,500ms,incorrect,0.3997435257224424
mGCP-III,02,2018-01-11_12:10,3,217,99,61_Caucasian_female_neutral_left.jpg,99,cue_left,target_F,target_right,cue_1,500ms,correct,0.4430541772271681
mGCP-III,02,2018-01-11_12:10,3,218,99,61_Caucasian_female_neutral_left.jpg,99,cue_left,target_E,target_right,cue_1,500ms,99,99
mGCP-III,02,2018-01-11_12:11,3,219,99,37_Caucasian_female_neutral_right.jpg,99,cue_right,target_E,target_right,cue_1,500ms,correct,0.4362757027356565
mGCP-III,02,2018-01-11_12:11,3,220,99,37_Caucasian_female_neutral_right.jpg,99,cue_right,target_F,target_left,cue_1,500ms,correct,0.4713824959071644
mGCP-III,02,2018-01-11_12:11,3,221,99,37_Caucasian_female_neutral_right.jpg,99,cue_right,target_E,target_left,cue_1,500ms,correct,0.6082288262550719
mGCP-III,02,2018-01-11_12:11,3,222,99,61_Caucasian_female_neutral_left.jpg,99,cue_left,target_F,target_left,cue_1,200ms,correct,0.6197871563745139
mGCP-III,02,2018-01-11_12:11,3,223,99,37_Caucasian_female_neutral_right.jpg,99,cue_right,target_E,target_right,cue_1,500ms,correct,0.385614526905556
mGCP-III,02,2018-01-11_12:11,3,224,99,61_Caucasian_female_neutral_right.jpg,99,cue_right,target_F,target_left,cue_1,200ms,correct,0.4381257782715693
mGCP-III,02,2018-01-11_12:11,3,225,99,61_Caucasian_female_neutral_right.jpg,99,cue_right,target_E,target_left,cue_1,500ms,incorrect,0.4789779586972145
mGCP-III,02,2018-01-11_12:11,3,226,99,26_Caucasian_female_neutral_left.jpg,99,cue_left,target_E,target_right,cue_1,500ms,correct,0.42491885425624787
mGCP-III,02,2018-01-11_12:11,3,227,99,37_Caucasian_female_neutral_right.jpg,99,cue_right,target_F,target_left,cue_1,200ms,correct,0.5537130300945137
mGCP-III,02,2018-01-11_12:11,3,228,99,61_Caucasian_female_neutral_left.jpg,99,cue_left,target_E,target_right,cue_1,200ms,correct,0.46311977333061805
mGCP-III,02,2018-01-11_12:11,3,229,99,61_Caucasian_female_neutral_left.jpg,99,cue_left,target_E,target_left,cue_1,200ms,correct,0.5569659709362895
mGCP-III,02,2018-01-11_12:11,3,230,99,37_Caucasian_female_neutral_left.jpg,99,cue_left,target_F,target_left,cue_1,500ms,correct,0.4342664171981596
mGCP-III,02,2018-01-11_12:11,3,231,99,61_Caucasian_female_neutral_right.jpg,99,cue_right,target_F,target_right,cue_1,200ms,correct,0.6570442722331791
mGCP-III,02,2018-01-11_12:11,3,232,99,37_Caucasian_female_neutral_right.jpg,99,cue_right,target_E,target_left,cue_1,200ms,correct,0.4464584268298495
mGCP-III,02,2018-01-11_12:11,3,233,99,26_Caucasian_female_neutral_right.jpg,99,cue_right,target_E,target_left,cue_1,500ms,correct,0.5030190641155059
mGCP-III,02,2018-01-11_12:11,3,234,99,26_Caucasian_female_neutral_left.jpg,99,cue_left,target_E,target_right,cue_1,500ms,correct,0.46172164876770694
mGCP-III,02,2018-01-11_12:11,3,235,99,26_Caucasian_female_neutral_left.jpg,99,cue_left,target_E,target_left,cue_1,500ms,incorrect,0.524373352591283
mGCP-III,02,2018-01-11_12:11,3,236,99,61_Caucasian_female_neutral_right.jpg,99,cue_right,target_F,target_left,cue_1,500ms,correct,0.6150554983159964
mGCP-III,02,2018-01-11_12:11,3,237,99,37_Caucasian_female_neutral_left.jpg,99,cue_left,target_E,target_right,cue_1,200ms,correct,0.39371448392194
mGCP-III,02,2018-01-11_12:11,3,238,99,26_Caucasian_female_neutral_right.jpg,99,cue_right,target_E,target_right,cue_1,200ms,correct,0.4895774732467544
mGCP-III,02,2018-01-11_12:11,3,239,99,37_Caucasian_female_neutral_left.jpg,99,cue_left,target_F,target_left,cue_1,200ms,correct,0.48543248231726466
mGCP-III,02,2018-01-11_12:11,3,240,99,26_Caucasian_female_neutral_left.jpg,99,cue_left,target_F,target_right,cue_1,200ms,incorrect,0.39166016131093784
mGCP-III,02,2018-01-11_12:11,3,241,99,26_Caucasian_female_neutral_right.jpg,99,cue_right,target_E,target_right,cue_1,200ms,correct,0.5608545666018472
mGCP-III,02,2018-01-11_12:11,3,242,99,37_Caucasian_female_neutral_right.jpg,99,cue_right,target_F,target_left,cue_1,500ms,correct,0.41476654993857665
mGCP-III,02,2018-01-11_12:11,3,243,99,37_Caucasian_female_neutral_left.jpg,99,cue_left,target_F,target_left,cue_1,500ms,correct,0.4111955841544841
mGCP-III,02,2018-01-11_12:11,3,244,99,61_Caucasian_female_neutral_right.jpg,99,cue_right,target_E,target_left,cue_1,200ms,correct,0.4719355827637628
mGCP-III,02,2018-01-11_12:11,3,245,99,37_Caucasian_female_neutral_right.jpg,99,cue_right,target_F,target_left,cue_1,200ms,correct,0.5442287756886799
mGCP-III,02,2018-01-11_12:11,3,246,99,26_Caucasian_female_neutral_right.jpg,99,cue_right,target_F,target_right,cue_1,500ms,correct,0.5065738323555706
mGCP-III,02,2018-01-11_12:11,3,247,99,61_Caucasian_female_neutral_right.jpg,99,cue_right,target_F,target_right,cue_1,500ms,correct,0.5741887005933677
mGCP-III,02,2018-01-11_12:11,3,248,99,26_Caucasian_female_neutral_right.jpg,99,cue_right,target_E,target_left,cue_1,500ms,correct,0.49760315859930415
mGCP-III,02,2018-01-11_12:11,3,249,99,61_Caucasian_female_neutral_right.jpg,99,cue_right,target_E,target_left,cue_1,500ms,correct,0.4352833068896871
mGCP-III,02,2018-01-11_12:11,3,250,99,37_Caucasian_female_neutral_left.jpg,99,cue_left,target_E,target_right,cue_1,500ms,correct,0.4498156640529487
mGCP-III,02,2018-01-11_12:12,3,251,99,26_Caucasian_female_neutral_right.jpg,99,cue_right,target_E,target_right,cue_1,500ms,correct,0.3797735346342961
mGCP-III,02,2018-01-11_12:12,3,252,99,37_Caucasian_female_neutral_left.jpg,99,cue_left,target_E,target_left,cue_1,200ms,incorrect,0.5234323148124531
mGCP-III,02,2018-01-11_12:12,3,253,99,37_Caucasian_female_neutral_right.jpg,99,cue_right,target_F,target_right,cue_1,200ms,correct,0.5074026725160365
mGCP-III,02,2018-01-11_12:12,3,254,99,26_Caucasian_female_neutral_right.jpg,99,cue_right,target_F,target_left,cue_1,200ms,correct,0.5750981334113021
mGCP-III,02,2018-01-11_12:12,3,255,99,61_Caucasian_female_neutral_left.jpg,99,cue_left,target_F,target_left,cue_1,500ms,correct,0.5458216658335004
mGCP-III,02,2018-01-11_12:12,3,256,99,61_Caucasian_female_neutral_right.jpg,99,cue_right,target_F,target_left,cue_1,500ms,correct,0.4938800939289649
mGCP-III,02,2018-01-11_12:12,3,257,99,37_Caucasian_female_neutral_left.jpg,99,cue_left,target_F,target_right,cue_1,500ms,correct,0.5332251126710617
mGCP-III,02,2018-01-11_12:12,3,258,99,37_Caucasian_female_neutral_left.jpg,99,cue_left,target_E,target_right,cue_1,200ms,correct,0.5452349987044727
mGCP-III,02,2018-01-11_12:12,3,259,99,61_Caucasian_female_neutral_right.jpg,99,cue_right,target_E,target_right,cue_1,500ms,correct,0.5977162253566348
mGCP-III,02,2018-01-11_12:12,3,260,99,61_Caucasian_female_neutral_left.jpg,99,cue_left,target_E,target_left,cue_1,500ms,correct,0.49522132955826237
mGCP-III,02,2018-01-11_12:12,3,261,99,26_Caucasian_female_neutral_left.jpg,99,cue_left,target_F,target_left,cue_1,200ms,incorrect,0.5243958711271262
mGCP-III,02,2018-01-11_12:12,3,262,99,26_Caucasian_female_neutral_right.jpg,99,cue_right,target_F,target_left,cue_1,500ms,correct,0.43742375302645087
mGCP-III,02,2018-01-11_12:12,3,263,99,37_Caucasian_female_neutral_right.jpg,99,cue_right,target_F,target_right,cue_1,500ms,correct,0.6303033128333482
mGCP-III,02,2018-01-11_12:12,3,264,99,26_Caucasian_female_neutral_right.jpg,99,cue_right,target_F,target_left,cue_1,500ms,correct,0.3691819213290728
mGCP-III,02,2018-01-11_12:12,3,265,99,26_Caucasian_female_neutral_left.jpg,99,cue_left,target_F,target_left,cue_1,200ms,correct,0.45439087754311913
mGCP-III,02,2018-01-11_12:12,3,266,99,26_Caucasian_female_neutral_right.jpg,99,cue_right,target_F,target_left,cue_1,200ms,correct,0.5233718703184422
mGCP-III,02,2018-01-11_12:12,3,267,99,26_Caucasian_female_neutral_right.jpg,99,cue_right,target_E,target_right,cue_1,500ms,correct,0.44673497026087716
mGCP-III,02,2018-01-11_12:12,3,268,99,26_Caucasian_female_neutral_right.jpg,99,cue_right,target_E,target_left,cue_1,200ms,correct,0.5333977547834365
mGCP-III,02,2018-01-11_12:12,3,269,99,26_Caucasian_female_neutral_left.jpg,99,cue_left,target_F,target_right,cue_1,500ms,correct,0.4884551019877108
mGCP-III,02,2018-01-11_12:12,3,270,99,37_Caucasian_female_neutral_right.jpg,99,cue_right,target_E,target_left,cue_1,200ms,correct,0.4854937169329787
mGCP-III,02,2018-01-11_12:12,3,271,99,37_Caucasian_female_neutral_left.jpg,99,cue_left,target_E,target_left,cue_1,500ms,correct,0.46647780067360145
mGCP-III,02,2018-01-11_12:12,3,272,99,37_Caucasian_female_neutral_left.jpg,99,cue_left,target_F,target_right,cue_1,200ms,correct,0.4723839781800052
mGCP-III,02,2018-01-11_12:12,3,273,99,37_Caucasian_female_neutral_right.jpg,99,cue_right,target_F,target_right,cue_1,200ms,correct,0.4813048741179955
mGCP-III,02,2018-01-11_12:12,3,274,99,37_Caucasian_female_neutral_left.jpg,99,cue_left,target_E,target_right,cue_1,500ms,correct,0.6352724031785328
mGCP-III,02,2018-01-11_12:12,3,275,99,61_Caucasian_female_neutral_left.jpg,99,cue_left,target_F,target_right,cue_1,200ms,correct,0.5307800737027719
mGCP-III,02,2018-01-11_12:12,3,276,99,37_Caucasian_female_neutral_right.jpg,99,cue_right,target_E,target_right,cue_1,200ms,correct,0.6042703046077804
mGCP-III,02,2018-01-11_12:12,3,277,99,61_Caucasian_female_neutral_right.jpg,99,cue_right,target_F,target_right,cue_1,200ms,correct,0.6019580064858019
mGCP-III,02,2018-01-11_12:12,3,278,99,26_Caucasian_female_neutral_right.jpg,99,cue_right,target_F,target_right,cue_1,200ms,correct,0.4988009867083747
mGCP-III,02,2018-01-11_12:12,3,279,99,26_Caucasian_female_neutral_left.jpg,99,cue_left,target_E,target_right,cue_1,200ms,correct,0.4652092564610939
mGCP-III,02,2018-01-11_12:12,3,280,99,26_Caucasian_female_neutral_left.jpg,99,cue_left,target_E,target_left,cue_1,200ms,correct,0.5605657762498595
mGCP-III,02,2018-01-11_12:12,3,281,99,37_Caucasian_female_neutral_right.jpg,99,cue_right,target_F,target_right,cue_1,500ms,correct,0.36406665802860516
mGCP-III,02,2018-01-11_12:13,3,282,99,61_Caucasian_female_neutral_left.jpg,99,cue_left,target_E,target_right,cue_1,500ms,correct,0.5192288546986674
mGCP-III,02,2018-01-11_12:13,3,283,99,26_Caucasian_female_neutral_left.jpg,99,cue_left,target_F,target_left,cue_1,500ms,correct,0.575636602972736
mGCP-III,02,2018-01-11_12:13,3,284,99,61_Caucasian_female_neutral_right.jpg,99,cue_right,target_E,target_left,cue_1,200ms,correct,0.561397776906233
mGCP-III,02,2018-01-11_12:13,3,285,99,26_Caucasian_female_neutral_left.jpg,99,cue_left,target_F,target_right,cue_1,500ms,correct,0.500163160622833
mGCP-III,02,2018-01-11_12:13,3,286,99,26_Caucasian_female_neutral_right.jpg,99,cue_right,target_F,target_right,cue_1,500ms,correct,0.5134170970213745
mGCP-III,02,2018-01-11_12:13,3,287,99,61_Caucasian_female_neutral_right.jpg,99,cue_right,target_E,target_right,cue_1,200ms,correct,0.662029165059721
mGCP-III,02,2018-01-11_12:13,3,288,99,37_Caucasian_female_neutral_left.jpg,99,cue_left,target_F,target_right,cue_1,500ms,correct,0.5200691516583902
mGCP-III,02,2018-01-11_12:13,4,289,61_Caucasian_female_neutral_left.jpg,37_Caucasian_female_neutral_left.jpg,26_Caucasian_female_neutral_left.jpg,cue_left,target_F,target_left,cue_3,200ms,correct,0.5892468853307946
mGCP-III,02,2018-01-11_12:13,4,290,37_Caucasian_female_neutral_right.jpg,61_Caucasian_female_neutral_right.jpg,26_Caucasian_female_neutral_right.jpg,cue_right,target_E,target_right,cue_3,500ms,correct,0.4094581013014249
mGCP-III,02,2018-01-11_12:13,4,291,26_Caucasian_female_neutral_right.jpg,61_Caucasian_female_neutral_right.jpg,37_Caucasian_female_neutral_right.jpg,cue_right,target_F,target_right,cue_3,500ms,correct,0.4015564654273476
mGCP-III,02,2018-01-11_12:13,4,292,26_Caucasian_female_neutral_left.jpg,61_Caucasian_female_neutral_left.jpg,37_Caucasian_female_neutral_left.jpg,cue_left,target_E,target_right,cue_3,200ms,correct,0.39108060529724753
mGCP-III,02,2018-01-11_12:13,4,293,61_Caucasian_female_neutral_left.jpg,26_Caucasian_female_neutral_left.jpg,37_Caucasian_female_neutral_left.jpg,cue_left,target_E,target_right,cue_3,500ms,correct,0.4573735959493206
mGCP-III,02,2018-01-11_12:13,4,294,26_Caucasian_female_neutral_left.jpg,37_Caucasian_female_neutral_left.jpg,61_Caucasian_female_neutral_left.jpg,cue_left,target_E,target_left,cue_3,200ms,correct,0.57008321586909
mGCP-III,02,2018-01-11_12:13,4,295,37_Caucasian_female_neutral_right.jpg,26_Caucasian_female_neutral_right.jpg,61_Caucasian_female_neutral_right.jpg,cue_right,target_E,target_left,cue_3,500ms,correct,0.5130884054033231
mGCP-III,02,2018-01-11_12:13,4,296,61_Caucasian_female_neutral_right.jpg,26_Caucasian_female_neutral_right.jpg,37_Caucasian_female_neutral_right.jpg,cue_right,target_E,target_right,cue_3,200ms,correct,0.4042966157412593
mGCP-III,02,2018-01-11_12:13,4,297,37_Caucasian_female_neutral_left.jpg,61_Caucasian_female_neutral_left.jpg,26_Caucasian_female_neutral_left.jpg,cue_left,target_F,target_left,cue_3,200ms,correct,0.5352746945372928
mGCP-III,02,2018-01-11_12:13,4,298,26_Caucasian_female_neutral_right.jpg,61_Caucasian_female_neutral_right.jpg,37_Caucasian_female_neutral_right.jpg,cue_right,target_E,target_left,cue_3,500ms,incorrect,0.4087082735477452
mGCP-III,02,2018-01-11_12:13,4,299,37_Caucasian_female_neutral_left.jpg,61_Caucasian_female_neutral_left.jpg,26_Caucasian_female_neutral_left.jpg,cue_left,target_E,target_right,cue_3,500ms,correct,0.545095146741005
mGCP-III,02,2018-01-11_12:13,4,300,37_Caucasian_female_neutral_left.jpg,26_Caucasian_female_neutral_left.jpg,61_Caucasian_female_neutral_left.jpg,cue_left,target_F,target_left,cue_3,500ms,correct,0.5431040340572508
mGCP-III,02,2018-01-11_12:13,4,301,26_Caucasian_female_neutral_left.jpg,37_Caucasian_female_neutral_left.jpg,61_Caucasian_female_neutral_left.jpg,cue_left,target_F,target_left,cue_3,200ms,correct,0.4612337471462524
mGCP-III,02,2018-01-11_12:13,4,302,26_Caucasian_female_neutral_left.jpg,61_Caucasian_female_neutral_left.jpg,37_Caucasian_female_neutral_left.jpg,cue_left,target_F,target_left,cue_3,200ms,correct,0.45483887789850996
mGCP-III,02,2018-01-11_12:13,4,303,37_Caucasian_female_neutral_right.jpg,26_Caucasian_female_neutral_right.jpg,61_Caucasian_female_neutral_right.jpg,cue_right,target_F,target_left,cue_3,200ms,correct,0.4942064151764498
mGCP-III,02,2018-01-11_12:13,4,304,26_Caucasian_female_neutral_right.jpg,61_Caucasian_female_neutral_right.jpg,37_Caucasian_female_neutral_right.jpg,cue_right,target_E,target_left,cue_3,200ms,correct,0.5752395656199951
mGCP-III,02,2018-01-11_12:13,4,305,26_Caucasian_female_neutral_right.jpg,37_Caucasian_female_neutral_right.jpg,61_Caucasian_female_neutral_right.jpg,cue_right,target_E,target_left,cue_3,500ms,correct,0.5603520476852282
mGCP-III,02,2018-01-11_12:13,4,306,61_Caucasian_female_neutral_left.jpg,26_Caucasian_female_neutral_left.jpg,37_Caucasian_female_neutral_left.jpg,cue_left,target_F,target_left,cue_3,200ms,correct,0.6438045580671314
mGCP-III,02,2018-01-11_12:13,4,307,61_Caucasian_female_neutral_right.jpg,37_Caucasian_female_neutral_right.jpg,26_Caucasian_female_neutral_right.jpg,cue_right,target_F,target_right,cue_3,200ms,correct,0.5628065681430598
mGCP-III,02,2018-01-11_12:13,4,308,37_Caucasian_female_neutral_left.jpg,26_Caucasian_female_neutral_left.jpg,61_Caucasian_female_neutral_left.jpg,cue_left,target_F,target_right,cue_3,500ms,correct,0.4585248067342036
mGCP-III,02,2018-01-11_12:13,4,309,26_Caucasian_female_neutral_right.jpg,61_Caucasian_female_neutral_right.jpg,37_Caucasian_female_neutral_right.jpg,cue_right,target_F,target_left,cue_3,500ms,correct,0.5001809384157241
mGCP-III,02,2018-01-11_12:13,4,310,37_Caucasian_female_neutral_left.jpg,26_Caucasian_female_neutral_left.jpg,61_Caucasian_female_neutral_left.jpg,cue_left,target_E,target_left,cue_3,200ms,correct,0.572431859698554
mGCP-III,02,2018-01-11_12:14,4,311,26_Caucasian_female_neutral_right.jpg,37_Caucasian_female_neutral_right.jpg,61_Caucasian_female_neutral_right.jpg,cue_right,target_F,target_right,cue_3,200ms,correct,0.5021945696353214
mGCP-III,02,2018-01-11_12:14,4,312,61_Caucasian_female_neutral_right.jpg,37_Caucasian_female_neutral_right.jpg,26_Caucasian_female_neutral_right.jpg,cue_right,target_E,target_right,cue_3,200ms,correct,0.41177237473311834
mGCP-III,02,2018-01-11_12:14,4,313,61_Caucasian_female_neutral_left.jpg,26_Caucasian_female_neutral_left.jpg,37_Caucasian_female_neutral_left.jpg,cue_left,target_E,target_left,cue_3,200ms,correct,0.4749791407248267
mGCP-III,02,2018-01-11_12:14,4,314,37_Caucasian_female_neutral_left.jpg,61_Caucasian_female_neutral_left.jpg,26_Caucasian_female_neutral_left.jpg,cue_left,target_E,target_left,cue_3,200ms,correct,0.42735441173681465
mGCP-III,02,2018-01-11_12:14,4,315,26_Caucasian_female_neutral_left.jpg,61_Caucasian_female_neutral_left.jpg,37_Caucasian_female_neutral_left.jpg,cue_left,target_E,target_left,cue_3,500ms,correct,0.4281350543296867
mGCP-III,02,2018-01-11_12:14,4,316,61_Caucasian_female_neutral_right.jpg,37_Caucasian_female_neutral_right.jpg,26_Caucasian_female_neutral_right.jpg,cue_right,target_E,target_right,cue_3,500ms,correct,0.5314319260687626
mGCP-III,02,2018-01-11_12:14,4,317,26_Caucasian_female_neutral_left.jpg,37_Caucasian_female_neutral_left.jpg,61_Caucasian_female_neutral_left.jpg,cue_left,target_F,target_left,cue_3,500ms,correct,0.4813210716602043
mGCP-III,02,2018-01-11_12:14,4,318,26_Caucasian_female_neutral_left.jpg,37_Caucasian_female_neutral_left.jpg,61_Caucasian_female_neutral_left.jpg,cue_left,target_F,target_right,cue_3,200ms,correct,0.4835618635552237
mGCP-III,02,2018-01-11_12:14,4,319,37_Caucasian_female_neutral_left.jpg,61_Caucasian_female_neutral_left.jpg,26_Caucasian_female_neutral_left.jpg,cue_left,target_F,target_right,cue_3,500ms,correct,0.42939727754855994
mGCP-III,02,2018-01-11_12:14,4,320,26_Caucasian_female_neutral_left.jpg,61_Caucasian_female_neutral_left.jpg,37_Caucasian_female_neutral_left.jpg,cue_left,target_F,target_right,cue_3,500ms,incorrect,0.42923727742163464
mGCP-III,02,2018-01-11_12:14,4,321,26_Caucasian_female_neutral_right.jpg,37_Caucasian_female_neutral_right.jpg,61_Caucasian_female_neutral_right.jpg,cue_right,target_F,target_left,cue_3,500ms,correct,0.34365972832347325
mGCP-III,02,2018-01-11_12:14,4,322,61_Caucasian_female_neutral_right.jpg,26_Caucasian_female_neutral_right.jpg,37_Caucasian_female_neutral_right.jpg,cue_right,target_F,target_left,cue_3,500ms,correct,0.5731567985421862
mGCP-III,02,2018-01-11_12:14,4,323,26_Caucasian_female_neutral_right.jpg,37_Caucasian_female_neutral_right.jpg,61_Caucasian_female_neutral_right.jpg,cue_right,target_F,target_right,cue_3,500ms,correct,0.5597179731103097
mGCP-III,02,2018-01-11_12:14,4,324,61_Caucasian_female_neutral_right.jpg,26_Caucasian_female_neutral_right.jpg,37_Caucasian_female_neutral_right.jpg,cue_right,target_E,target_left,cue_3,200ms,correct,0.5109606012520089
mGCP-III,02,2018-01-11_12:14,4,325,37_Caucasian_female_neutral_right.jpg,61_Caucasian_female_neutral_right.jpg,26_Caucasian_female_neutral_right.jpg,cue_right,target_F,target_right,cue_3,500ms,correct,0.4558044095247169
mGCP-III,02,2018-01-11_12:14,4,326,61_Caucasian_female_neutral_left.jpg,37_Caucasian_female_neutral_left.jpg,26_Caucasian_female_neutral_left.jpg,cue_left,target_E,target_left,cue_3,500ms,correct,0.4568248547748226
mGCP-III,02,2018-01-11_12:14,4,327,37_Caucasian_female_neutral_right.jpg,26_Caucasian_female_neutral_right.jpg,61_Caucasian_female_neutral_right.jpg,cue_right,target_E,target_right,cue_3,500ms,correct,0.4590079676127061
mGCP-III,02,2018-01-11_12:14,4,328,26_Caucasian_female_neutral_right.jpg,37_Caucasian_female_neutral_right.jpg,61_Caucasian_female_neutral_right.jpg,cue_right,target_E,target_right,cue_3,500ms,correct,0.453582975671452
mGCP-III,02,2018-01-11_12:14,4,329,61_Caucasian_female_neutral_right.jpg,26_Caucasian_female_neutral_right.jpg,37_Caucasian_female_neutral_right.jpg,cue_right,target_F,target_right,cue_3,500ms,correct,0.5273019474971079
mGCP-III,02,2018-01-11_12:14,4,330,37_Caucasian_female_neutral_right.jpg,61_Caucasian_female_neutral_right.jpg,26_Caucasian_female_neutral_right.jpg,cue_right,target_E,target_left,cue_3,500ms,correct,0.5031150641898421
mGCP-III,02,2018-01-11_12:14,4,331,37_Caucasian_female_neutral_left.jpg,26_Caucasian_female_neutral_left.jpg,61_Caucasian_female_neutral_left.jpg,cue_left,target_F,target_right,cue_3,200ms,correct,0.4557755699952395
mGCP-III,02,2018-01-11_12:14,4,332,61_Caucasian_female_neutral_right.jpg,37_Caucasian_female_neutral_right.jpg,26_Caucasian_female_neutral_right.jpg,cue_right,target_F,target_left,cue_3,200ms,correct,0.4620961675809667
mGCP-III,02,2018-01-11_12:14,4,333,37_Caucasian_female_neutral_right.jpg,26_Caucasian_female_neutral_right.jpg,61_Caucasian_female_neutral_right.jpg,cue_right,target_F,target_right,cue_3,500ms,correct,0.36182507601006364
mGCP-III,02,2018-01-11_12:14,4,334,37_Caucasian_female_neutral_right.jpg,61_Caucasian_female_neutral_right.jpg,26_Caucasian_female_neutral_right.jpg,cue_right,target_E,target_right,cue_3,200ms,correct,0.7780652073615784
mGCP-III,02,2018-01-11_12:14,4,335,37_Caucasian_female_neutral_right.jpg,61_Caucasian_female_neutral_right.jpg,26_Caucasian_female_neutral_right.jpg,cue_right,target_F,target_left,cue_3,200ms,correct,0.4594010543423792
mGCP-III,02,2018-01-11_12:14,4,336,37_Caucasian_female_neutral_right.jpg,61_Caucasian_female_neutral_right.jpg,26_Caucasian_female_neutral_right.jpg,cue_right,target_F,target_right,cue_3,200ms,correct,0.5143237644042529
mGCP-III,02,2018-01-11_12:14,4,337,37_Caucasian_female_neutral_left.jpg,61_Caucasian_female_neutral_left.jpg,26_Caucasian_female_neutral_left.jpg,cue_left,target_E,target_left,cue_3,500ms,correct,0.5241465869803505
mGCP-III,02,2018-01-11_12:14,4,338,37_Caucasian_female_neutral_left.jpg,61_Caucasian_female_neutral_left.jpg,26_Caucasian_female_neutral_left.jpg,cue_left,target_E,target_right,cue_3,200ms,correct,0.607687591260401
mGCP-III,02,2018-01-11_12:14,4,339,37_Caucasian_female_neutral_left.jpg,26_Caucasian_female_neutral_left.jpg,61_Caucasian_female_neutral_left.jpg,cue_left,target_E,target_right,cue_3,200ms,correct,0.4112283743052103
mGCP-III,02,2018-01-11_12:14,4,340,61_Caucasian_female_neutral_left.jpg,26_Caucasian_female_neutral_left.jpg,37_Caucasian_female_neutral_left.jpg,cue_left,target_F,target_left,cue_3,500ms,correct,0.4158454643711593
mGCP-III,02,2018-01-11_12:14,4,341,26_Caucasian_female_neutral_left.jpg,61_Caucasian_female_neutral_left.jpg,37_Caucasian_female_neutral_left.jpg,cue_left,target_E,target_right,cue_3,500ms,correct,0.5001722470497043
mGCP-III,02,2018-01-11_12:14,4,342,61_Caucasian_female_neutral_right.jpg,37_Caucasian_female_neutral_right.jpg,26_Caucasian_female_neutral_right.jpg,cue_right,target_F,target_right,cue_3,500ms,incorrect,0.5605969861499034
mGCP-III,02,2018-01-11_12:15,4,343,37_Caucasian_female_neutral_right.jpg,26_Caucasian_female_neutral_right.jpg,61_Caucasian_female_neutral_right.jpg,cue_right,target_F,target_right,cue_3,200ms,correct,0.5406961309199687
mGCP-III,02,2018-01-11_12:15,4,344,61_Caucasian_female_neutral_right.jpg,26_Caucasian_female_neutral_right.jpg,37_Caucasian_female_neutral_right.jpg,cue_right,target_E,target_right,cue_3,500ms,correct,0.6989880090768565
mGCP-III,02,2018-01-11_12:15,4,345,26_Caucasian_female_neutral_left.jpg,61_Caucasian_female_neutral_left.jpg,37_Caucasian_female_neutral_left.jpg,cue_left,target_F,target_left,cue_3,500ms,correct,0.5172646062346757
mGCP-III,02,2018-01-11_12:15,4,346,26_Caucasian_female_neutral_right.jpg,61_Caucasian_female_neutral_right.jpg,37_Caucasian_female_neutral_right.jpg,cue_right,target_F,target_left,cue_3,200ms,correct,0.4116024980576185
mGCP-III,02,2018-01-11_12:15,4,347,26_Caucasian_female_neutral_left.jpg,37_Caucasian_female_neutral_left.jpg,61_Caucasian_female_neutral_left.jpg,cue_left,target_E,target_right,cue_3,500ms,correct,0.43713535773713375
mGCP-III,02,2018-01-11_12:15,4,348,37_Caucasian_female_neutral_left.jpg,61_Caucasian_female_neutral_left.jpg,26_Caucasian_female_neutral_left.jpg,cue_left,target_F,target_left,cue_3,500ms,correct,0.44833734189523966
mGCP-III,02,2018-01-11_12:15,4,349,26_Caucasian_female_neutral_left.jpg,37_Caucasian_female_neutral_left.jpg,61_Caucasian_female_neutral_left.jpg,cue_left,target_E,target_left,cue_3,500ms,correct,0.5260614526905556
mGCP-III,02,2018-01-11_12:15,4,350,37_Caucasian_female_neutral_left.jpg,61_Caucasian_female_neutral_left.jpg,26_Caucasian_female_neutral_left.jpg,cue_left,target_F,target_right,cue_3,200ms,correct,0.553819301783733
mGCP-III,02,2018-01-11_12:15,4,351,61_Caucasian_female_neutral_left.jpg,37_Caucasian_female_neutral_left.jpg,26_Caucasian_female_neutral_left.jpg,cue_left,target_F,target_right,cue_3,500ms,correct,0.42496112589469703
mGCP-III,02,2018-01-11_12:15,4,352,26_Caucasian_female_neutral_left.jpg,61_Caucasian_female_neutral_left.jpg,37_Caucasian_female_neutral_left.jpg,cue_left,target_F,target_right,cue_3,200ms,correct,0.5401011674875917
mGCP-III,02,2018-01-11_12:15,4,353,26_Caucasian_female_neutral_right.jpg,61_Caucasian_female_neutral_right.jpg,37_Caucasian_female_neutral_right.jpg,cue_right,target_E,target_right,cue_3,200ms,correct,0.5165092476127029
mGCP-III,02,2018-01-11_12:15,4,354,26_Caucasian_female_neutral_right.jpg,61_Caucasian_female_neutral_right.jpg,37_Caucasian_female_neutral_right.jpg,cue_right,target_F,target_right,cue_3,200ms,correct,0.559136836849575
mGCP-III,02,2018-01-11_12:15,4,355,26_Caucasian_female_neutral_right.jpg,37_Caucasian_female_neutral_right.jpg,61_Caucasian_female_neutral_right.jpg,cue_right,target_E,target_right,cue_3,200ms,correct,0.5180646068656642
mGCP-III,02,2018-01-11_12:15,4,356,26_Caucasian_female_neutral_left.jpg,37_Caucasian_female_neutral_left.jpg,61_Caucasian_female_neutral_left.jpg,cue_left,target_F,target_right,cue_3,500ms,correct,0.4004522670238657
mGCP-III,02,2018-01-11_12:15,4,357,37_Caucasian_female_neutral_right.jpg,61_Caucasian_female_neutral_right.jpg,26_Caucasian_female_neutral_right.jpg,cue_right,target_E,target_left,cue_3,200ms,correct,0.4420692875610257
mGCP-III,02,2018-01-11_12:15,4,358,61_Caucasian_female_neutral_right.jpg,37_Caucasian_female_neutral_right.jpg,26_Caucasian_female_neutral_right.jpg,cue_right,target_E,target_left,cue_3,500ms,correct,0.4142415124879335
mGCP-III,02,2018-01-11_12:15,4,359,37_Caucasian_female_neutral_right.jpg,26_Caucasian_female_neutral_right.jpg,61_Caucasian_female_neutral_right.jpg,cue_right,target_E,target_right,cue_3,200ms,correct,0.5174949274023675
mGCP-III,02,2018-01-11_12:15,4,360,26_Caucasian_female_neutral_right.jpg,37_Caucasian_female_neutral_right.jpg,61_Caucasian_female_neutral_right.jpg,cue_right,target_E,target_left,cue_3,200ms,correct,0.5485886803653557
mGCP-III,02,2018-01-11_12:15,4,361,61_Caucasian_female_neutral_right.jpg,26_Caucasian_female_neutral_right.jpg,37_Caucasian_female_neutral_right.jpg,cue_right,target_F,target_left,cue_3,200ms,correct,0.5750957630389166
mGCP-III,02,2018-01-11_12:15,4,362,37_Caucasian_female_neutral_right.jpg,61_Caucasian_female_neutral_right.jpg,26_Caucasian_female_neutral_right.jpg,cue_right,target_F,target_left,cue_3,500ms,99,99
mGCP-III,02,2018-01-11_12:15,4,363,61_Caucasian_female_neutral_left.jpg,26_Caucasian_female_neutral_left.jpg,37_Caucasian_female_neutral_left.jpg,cue_left,target_F,target_right,cue_3,200ms,correct,0.43480370157340076
mGCP-III,02,2018-01-11_12:15,4,364,26_Caucasian_female_neutral_right.jpg,61_Caucasian_female_neutral_right.jpg,37_Caucasian_female_neutral_right.jpg,cue_right,target_E,target_right,cue_3,500ms,correct,0.4137042281108734
mGCP-III,02,2018-01-11_12:15,4,365,37_Caucasian_female_neutral_left.jpg,26_Caucasian_female_neutral_left.jpg,61_Caucasian_female_neutral_left.jpg,cue_left,target_F,target_left,cue_3,200ms,correct,0.34433449428979657
mGCP-III,02,2018-01-11_12:15,4,366,61_Caucasian_female_neutral_left.jpg,37_Caucasian_female_neutral_left.jpg,26_Caucasian_female_neutral_left.jpg,cue_left,target_E,target_right,cue_3,500ms,correct,0.3692664646059711
mGCP-III,02,2018-01-11_12:15,4,367,61_Caucasian_female_neutral_right.jpg,26_Caucasian_female_neutral_right.jpg,37_Caucasian_female_neutral_right.jpg,cue_right,target_F,target_right,cue_3,200ms,correct,0.4735956334588991
mGCP-III,02,2018-01-11_12:15,4,368,37_Caucasian_female_neutral_right.jpg,26_Caucasian_female_neutral_right.jpg,61_Caucasian_female_neutral_right.jpg,cue_right,target_E,target_left,cue_3,200ms,correct,0.4956507619954209
mGCP-III,02,2018-01-11_12:15,4,369,61_Caucasian_female_neutral_right.jpg,37_Caucasian_female_neutral_right.jpg,26_Caucasian_female_neutral_right.jpg,cue_right,target_E,target_left,cue_3,200ms,correct,0.603951094479271
mGCP-III,02,2018-01-11_12:15,4,370,61_Caucasian_female_neutral_left.jpg,26_Caucasian_female_neutral_left.jpg,37_Caucasian_female_neutral_left.jpg,cue_left,target_F,target_right,cue_3,500ms,correct,0.38654015726569924
mGCP-III,02,2018-01-11_12:15,4,371,61_Caucasian_female_neutral_right.jpg,37_Caucasian_female_neutral_right.jpg,26_Caucasian_female_neutral_right.jpg,cue_right,target_F,target_left,cue_3,500ms,correct,0.5160964077804238
mGCP-III,02,2018-01-11_12:15,4,372,37_Caucasian_female_neutral_left.jpg,26_Caucasian_female_neutral_left.jpg,61_Caucasian_female_neutral_left.jpg,cue_left,target_E,target_right,cue_3,500ms,correct,0.42933288243511925
mGCP-III,02,2018-01-11_12:16,4,373,37_Caucasian_female_neutral_left.jpg,26_Caucasian_female_neutral_left.jpg,61_Caucasian_female_neutral_left.jpg,cue_left,target_E,target_left,cue_3,500ms,correct,0.418612083842163
mGCP-III,02,2018-01-11_12:16,4,374,26_Caucasian_female_neutral_right.jpg,37_Caucasian_female_neutral_right.jpg,61_Caucasian_female_neutral_right.jpg,cue_right,target_F,target_left,cue_3,200ms,correct,0.4680789871254092
mGCP-III,02,2018-01-11_12:16,4,375,61_Caucasian_female_neutral_left.jpg,37_Caucasian_female_neutral_left.jpg,26_Caucasian_female_neutral_left.jpg,cue_left,target_F,target_right,cue_3,200ms,correct,0.5676670164284587
mGCP-III,02,2018-01-11_12:16,4,376,61_Caucasian_female_neutral_left.jpg,37_Caucasian_female_neutral_left.jpg,26_Caucasian_female_neutral_left.jpg,cue_left,target_E,target_right,cue_3,200ms,correct,0.4914496722576587
mGCP-III,02,2018-01-11_12:16,4,377,61_Caucasian_female_neutral_left.jpg,37_Caucasian_female_neutral_left.jpg,26_Caucasian_female_neutral_left.jpg,cue_left,target_E,target_left,cue_3,200ms,correct,0.5013443961233861
mGCP-III,02,2018-01-11_12:16,4,378,26_Caucasian_female_neutral_left.jpg,61_Caucasian_female_neutral_left.jpg,37_Caucasian_female_neutral_left.jpg,cue_left,target_E,target_left,cue_3,200ms,correct,0.388985196233989
mGCP-III,02,2018-01-11_12:16,4,379,61_Caucasian_female_neutral_left.jpg,37_Caucasian_female_neutral_left.jpg,26_Caucasian_female_neutral_left.jpg,cue_left,target_F,target_left,cue_3,500ms,correct,0.5462021105795429
mGCP-III,02,2018-01-11_12:16,4,380,37_Caucasian_female_neutral_right.jpg,26_Caucasian_female_neutral_right.jpg,61_Caucasian_female_neutral_right.jpg,cue_right,target_F,target_left,cue_3,500ms,correct,0.5868555747983919
mGCP-III,02,2018-01-11_12:16,4,381,61_Caucasian_female_neutral_left.jpg,26_Caucasian_female_neutral_left.jpg,37_Caucasian_female_neutral_left.jpg,cue_left,target_E,target_right,cue_3,200ms,correct,0.3812151160218491
mGCP-III,02,2018-01-11_12:16,4,382,26_Caucasian_female_neutral_left.jpg,37_Caucasian_female_neutral_left.jpg,61_Caucasian_female_neutral_left.jpg,cue_left,target_E,target_right,cue_3,200ms,correct,0.4137824503959564
mGCP-III,02,2018-01-11_12:16,4,383,61_Caucasian_female_neutral_left.jpg,26_Caucasian_female_neutral_left.jpg,37_Caucasian_female_neutral_left.jpg,cue_left,target_E,target_left,cue_3,500ms,incorrect,0.39753789435053477
mGCP-III,02,2018-01-11_12:16,4,384,61_Caucasian_female_neutral_right.jpg,26_Caucasian_female_neutral_right.jpg,37_Caucasian_female_neutral_right.jpg,cue_right,target_E,target_left,cue_3,500ms,correct,0.4844483827746444
