experiment,subject,date,block,trial,face_left,face_top,face_right,cue_dir,target_id,target_pos,cue_num,isi,correct_response,rt
mGCP-III,27,2018-01-18_16:05,1,1,61_Caucasian_female_neutral_right.jpg,37_Caucasian_female_neutral_right.jpg,26_Caucasian_female_neutral_right.jpg,cue_right,target_F,target_left,cue_3,200ms,99,99
mGCP-III,27,2018-01-18_16:05,1,2,26_Caucasian_female_neutral_right.jpg,61_Caucasian_female_neutral_right.jpg,37_Caucasian_female_neutral_right.jpg,cue_right,target_E,target_left,cue_3,500ms,incorrect,0.6095911544070987
mGCP-III,27,2018-01-18_16:05,1,3,26_Caucasian_female_neutral_left.jpg,37_Caucasian_female_neutral_left.jpg,61_Caucasian_female_neutral_left.jpg,cue_left,target_F,target_right,cue_3,500ms,correct,0.3931395133367914
mGCP-III,27,2018-01-18_16:05,1,4,37_Caucasian_female_neutral_left.jpg,61_Caucasian_female_neutral_left.jpg,26_Caucasian_female_neutral_left.jpg,cue_left,target_E,target_right,cue_3,200ms,correct,0.6923329154924431
mGCP-III,27,2018-01-18_16:05,1,5,61_Caucasian_female_neutral_right.jpg,26_Caucasian_female_neutral_right.jpg,37_Caucasian_female_neutral_right.jpg,cue_right,target_F,target_right,cue_3,200ms,correct,0.6632326570797886
mGCP-III,27,2018-01-18_16:05,1,6,61_Caucasian_female_neutral_left.jpg,26_Caucasian_female_neutral_left.jpg,37_Caucasian_female_neutral_left.jpg,cue_left,target_F,target_left,cue_3,200ms,correct,0.5964640381098434
mGCP-III,27,2018-01-18_16:05,1,7,26_Caucasian_female_neutral_left.jpg,37_Caucasian_female_neutral_left.jpg,61_Caucasian_female_neutral_left.jpg,cue_left,target_E,target_left,cue_3,500ms,incorrect,0.5116904737551522
mGCP-III,27,2018-01-18_16:06,1,8,61_Caucasian_female_neutral_right.jpg,37_Caucasian_female_neutral_right.jpg,26_Caucasian_female_neutral_right.jpg,cue_right,target_F,target_right,cue_3,500ms,correct,0.40000647901615594
mGCP-III,27,2018-01-18_16:06,1,9,26_Caucasian_female_neutral_right.jpg,37_Caucasian_female_neutral_right.jpg,61_Caucasian_female_neutral_right.jpg,cue_right,target_F,target_left,cue_3,500ms,correct,0.4464839294741978
mGCP-III,27,2018-01-18_16:06,1,10,37_Caucasian_female_neutral_left.jpg,61_Caucasian_female_neutral_left.jpg,26_Caucasian_female_neutral_left.jpg,cue_left,target_E,target_right,cue_3,500ms,correct,0.4757789533905452
mGCP-III,27,2018-01-18_16:06,1,11,61_Caucasian_female_neutral_right.jpg,37_Caucasian_female_neutral_right.jpg,26_Caucasian_female_neutral_right.jpg,cue_right,target_E,target_left,cue_3,200ms,correct,0.7635910177159531
mGCP-III,27,2018-01-18_16:06,1,12,37_Caucasian_female_neutral_right.jpg,61_Caucasian_female_neutral_right.jpg,26_Caucasian_female_neutral_right.jpg,cue_right,target_E,target_right,cue_3,200ms,correct,0.6733490067526873
mGCP-III,27,2018-01-18_16:06,1,13,37_Caucasian_female_neutral_left.jpg,26_Caucasian_female_neutral_left.jpg,61_Caucasian_female_neutral_left.jpg,cue_left,target_F,target_right,cue_3,500ms,correct,0.4899790577692329
mGCP-III,27,2018-01-18_16:06,1,14,26_Caucasian_female_neutral_left.jpg,61_Caucasian_female_neutral_left.jpg,37_Caucasian_female_neutral_left.jpg,cue_left,target_E,target_right,cue_3,200ms,99,99
mGCP-III,27,2018-01-18_16:06,1,15,37_Caucasian_female_neutral_left.jpg,26_Caucasian_female_neutral_left.jpg,61_Caucasian_female_neutral_left.jpg,cue_left,target_E,target_right,cue_3,500ms,correct,0.6473487989533169
mGCP-III,27,2018-01-18_16:06,1,16,61_Caucasian_female_neutral_right.jpg,26_Caucasian_female_neutral_right.jpg,37_Caucasian_female_neutral_right.jpg,cue_right,target_E,target_left,cue_3,200ms,correct,0.5560847628985357
mGCP-III,27,2018-01-18_16:06,1,17,37_Caucasian_female_neutral_left.jpg,26_Caucasian_female_neutral_left.jpg,61_Caucasian_female_neutral_left.jpg,cue_left,target_E,target_left,cue_3,500ms,correct,0.4481771647115238
mGCP-III,27,2018-01-18_16:06,1,18,37_Caucasian_female_neutral_right.jpg,26_Caucasian_female_neutral_right.jpg,61_Caucasian_female_neutral_right.jpg,cue_right,target_E,target_left,cue_3,200ms,correct,0.4738976687003742
mGCP-III,27,2018-01-18_16:06,1,19,61_Caucasian_female_neutral_right.jpg,26_Caucasian_female_neutral_right.jpg,37_Caucasian_female_neutral_right.jpg,cue_right,target_F,target_left,cue_3,500ms,correct,0.5330842599869356
mGCP-III,27,2018-01-18_16:06,1,20,61_Caucasian_female_neutral_left.jpg,37_Caucasian_female_neutral_left.jpg,26_Caucasian_female_neutral_left.jpg,cue_left,target_E,target_left,cue_3,500ms,correct,0.4108529030527279
mGCP-III,27,2018-01-18_16:06,1,21,37_Caucasian_female_neutral_left.jpg,26_Caucasian_female_neutral_left.jpg,61_Caucasian_female_neutral_left.jpg,cue_left,target_F,target_left,cue_3,500ms,correct,0.4991203947138274
mGCP-III,27,2018-01-18_16:06,1,22,26_Caucasian_female_neutral_right.jpg,37_Caucasian_female_neutral_right.jpg,61_Caucasian_female_neutral_right.jpg,cue_right,target_E,target_right,cue_3,500ms,correct,0.3365875897652586
mGCP-III,27,2018-01-18_16:06,1,23,61_Caucasian_female_neutral_left.jpg,37_Caucasian_female_neutral_left.jpg,26_Caucasian_female_neutral_left.jpg,cue_left,target_F,target_left,cue_3,500ms,correct,0.44352570608316455
mGCP-III,27,2018-01-18_16:06,1,24,61_Caucasian_female_neutral_right.jpg,37_Caucasian_female_neutral_right.jpg,26_Caucasian_female_neutral_right.jpg,cue_right,target_F,target_right,cue_3,200ms,correct,0.6197260719927726
mGCP-III,27,2018-01-18_16:06,1,25,26_Caucasian_female_neutral_left.jpg,37_Caucasian_female_neutral_left.jpg,61_Caucasian_female_neutral_left.jpg,cue_left,target_E,target_right,cue_3,500ms,correct,0.6008298669948999
mGCP-III,27,2018-01-18_16:06,1,26,26_Caucasian_female_neutral_right.jpg,37_Caucasian_female_neutral_right.jpg,61_Caucasian_female_neutral_right.jpg,cue_right,target_F,target_right,cue_3,200ms,correct,0.6272970379432081
mGCP-III,27,2018-01-18_16:06,1,27,61_Caucasian_female_neutral_left.jpg,37_Caucasian_female_neutral_left.jpg,26_Caucasian_female_neutral_left.jpg,cue_left,target_F,target_left,cue_3,200ms,correct,0.45374121629356523
mGCP-III,27,2018-01-18_16:06,1,28,61_Caucasian_female_neutral_right.jpg,37_Caucasian_female_neutral_right.jpg,26_Caucasian_female_neutral_right.jpg,cue_right,target_F,target_left,cue_3,500ms,correct,0.407874531505513
mGCP-III,27,2018-01-18_16:06,1,29,37_Caucasian_female_neutral_right.jpg,26_Caucasian_female_neutral_right.jpg,61_Caucasian_female_neutral_right.jpg,cue_right,target_E,target_right,cue_3,500ms,correct,0.5168187720773858
mGCP-III,27,2018-01-18_16:06,1,30,61_Caucasian_female_neutral_left.jpg,37_Caucasian_female_neutral_left.jpg,26_Caucasian_female_neutral_left.jpg,cue_left,target_E,target_left,cue_3,200ms,correct,0.5563944914174499
mGCP-III,27,2018-01-18_16:06,1,31,26_Caucasian_female_neutral_left.jpg,61_Caucasian_female_neutral_left.jpg,37_Caucasian_female_neutral_left.jpg,cue_left,target_E,target_left,cue_3,200ms,correct,0.4599551446735859
mGCP-III,27,2018-01-18_16:06,1,32,37_Caucasian_female_neutral_left.jpg,26_Caucasian_female_neutral_left.jpg,61_Caucasian_female_neutral_left.jpg,cue_left,target_F,target_left,cue_3,200ms,correct,0.5401452010446519
mGCP-III,27,2018-01-18_16:06,1,33,26_Caucasian_female_neutral_right.jpg,61_Caucasian_female_neutral_right.jpg,37_Caucasian_female_neutral_right.jpg,cue_right,target_F,target_left,cue_3,500ms,correct,0.4765793487713381
mGCP-III,27,2018-01-18_16:06,1,34,26_Caucasian_female_neutral_right.jpg,61_Caucasian_female_neutral_right.jpg,37_Caucasian_female_neutral_right.jpg,cue_right,target_F,target_right,cue_3,500ms,incorrect,0.3694527879306406
mGCP-III,27,2018-01-18_16:06,1,35,61_Caucasian_female_neutral_left.jpg,37_Caucasian_female_neutral_left.jpg,26_Caucasian_female_neutral_left.jpg,cue_left,target_F,target_right,cue_3,500ms,correct,0.45134872152266325
mGCP-III,27,2018-01-18_16:06,1,36,37_Caucasian_female_neutral_right.jpg,61_Caucasian_female_neutral_right.jpg,26_Caucasian_female_neutral_right.jpg,cue_right,target_F,target_left,cue_3,200ms,incorrect,0.6141363413880754
mGCP-III,27,2018-01-18_16:06,1,37,37_Caucasian_female_neutral_left.jpg,61_Caucasian_female_neutral_left.jpg,26_Caucasian_female_neutral_left.jpg,cue_left,target_F,target_left,cue_3,200ms,correct,0.7744271701412799
mGCP-III,27,2018-01-18_16:07,1,38,26_Caucasian_female_neutral_left.jpg,61_Caucasian_female_neutral_left.jpg,37_Caucasian_female_neutral_left.jpg,cue_left,target_E,target_left,cue_3,500ms,correct,0.4996438517118804
mGCP-III,27,2018-01-18_16:07,1,39,26_Caucasian_female_neutral_right.jpg,37_Caucasian_female_neutral_right.jpg,61_Caucasian_female_neutral_right.jpg,cue_right,target_F,target_right,cue_3,500ms,correct,0.3365224045519426
mGCP-III,27,2018-01-18_16:07,1,40,37_Caucasian_female_neutral_right.jpg,61_Caucasian_female_neutral_right.jpg,26_Caucasian_female_neutral_right.jpg,cue_right,target_E,target_right,cue_3,500ms,correct,0.4460031391608936
mGCP-III,27,2018-01-18_16:07,1,41,61_Caucasian_female_neutral_left.jpg,37_Caucasian_female_neutral_left.jpg,26_Caucasian_female_neutral_left.jpg,cue_left,target_E,target_right,cue_3,500ms,incorrect,0.5062560024707636
mGCP-III,27,2018-01-18_16:07,1,42,37_Caucasian_female_neutral_left.jpg,61_Caucasian_female_neutral_left.jpg,26_Caucasian_female_neutral_left.jpg,cue_left,target_E,target_left,cue_3,200ms,incorrect,0.5826909956304007
mGCP-III,27,2018-01-18_16:07,1,43,61_Caucasian_female_neutral_right.jpg,26_Caucasian_female_neutral_right.jpg,37_Caucasian_female_neutral_right.jpg,cue_right,target_E,target_right,cue_3,200ms,correct,0.459441959286778
mGCP-III,27,2018-01-18_16:07,1,44,37_Caucasian_female_neutral_right.jpg,26_Caucasian_female_neutral_right.jpg,61_Caucasian_female_neutral_right.jpg,cue_right,target_E,target_right,cue_3,200ms,correct,0.40952786549314624
mGCP-III,27,2018-01-18_16:07,1,45,26_Caucasian_female_neutral_right.jpg,37_Caucasian_female_neutral_right.jpg,61_Caucasian_female_neutral_right.jpg,cue_right,target_E,target_left,cue_3,500ms,correct,0.5520176007994451
mGCP-III,27,2018-01-18_16:07,1,46,61_Caucasian_female_neutral_right.jpg,26_Caucasian_female_neutral_right.jpg,37_Caucasian_female_neutral_right.jpg,cue_right,target_E,target_right,cue_3,500ms,correct,0.33497889776845113
mGCP-III,27,2018-01-18_16:07,1,47,61_Caucasian_female_neutral_left.jpg,26_Caucasian_female_neutral_left.jpg,37_Caucasian_female_neutral_left.jpg,cue_left,target_F,target_right,cue_3,200ms,correct,0.545804067478457
mGCP-III,27,2018-01-18_16:07,1,48,37_Caucasian_female_neutral_right.jpg,26_Caucasian_female_neutral_right.jpg,61_Caucasian_female_neutral_right.jpg,cue_right,target_F,target_right,cue_3,500ms,correct,0.45956561365528614
mGCP-III,27,2018-01-18_16:07,1,49,26_Caucasian_female_neutral_left.jpg,37_Caucasian_female_neutral_left.jpg,61_Caucasian_female_neutral_left.jpg,cue_left,target_F,target_left,cue_3,500ms,correct,0.6109007845516317
mGCP-III,27,2018-01-18_16:07,1,50,61_Caucasian_female_neutral_left.jpg,26_Caucasian_female_neutral_left.jpg,37_Caucasian_female_neutral_left.jpg,cue_left,target_E,target_right,cue_3,200ms,correct,0.49169678684484097
mGCP-III,27,2018-01-18_16:07,1,51,37_Caucasian_female_neutral_right.jpg,26_Caucasian_female_neutral_right.jpg,61_Caucasian_female_neutral_right.jpg,cue_right,target_F,target_right,cue_3,200ms,correct,0.5670410141392495
mGCP-III,27,2018-01-18_16:07,1,52,26_Caucasian_female_neutral_left.jpg,61_Caucasian_female_neutral_left.jpg,37_Caucasian_female_neutral_left.jpg,cue_left,target_E,target_right,cue_3,500ms,correct,0.5377293976198416
mGCP-III,27,2018-01-18_16:07,1,53,26_Caucasian_female_neutral_right.jpg,61_Caucasian_female_neutral_right.jpg,37_Caucasian_female_neutral_right.jpg,cue_right,target_E,target_right,cue_3,500ms,correct,0.37758158126598573
mGCP-III,27,2018-01-18_16:07,1,54,26_Caucasian_female_neutral_left.jpg,37_Caucasian_female_neutral_left.jpg,61_Caucasian_female_neutral_left.jpg,cue_left,target_E,target_right,cue_3,200ms,correct,0.4630737631887314
mGCP-III,27,2018-01-18_16:07,1,55,37_Caucasian_female_neutral_right.jpg,61_Caucasian_female_neutral_right.jpg,26_Caucasian_female_neutral_right.jpg,cue_right,target_F,target_right,cue_3,500ms,correct,0.51346232630749
mGCP-III,27,2018-01-18_16:07,1,56,61_Caucasian_female_neutral_right.jpg,26_Caucasian_female_neutral_right.jpg,37_Caucasian_female_neutral_right.jpg,cue_right,target_E,target_left,cue_3,500ms,incorrect,0.467717320581869
mGCP-III,27,2018-01-18_16:07,1,57,37_Caucasian_female_neutral_left.jpg,61_Caucasian_female_neutral_left.jpg,26_Caucasian_female_neutral_left.jpg,cue_left,target_F,target_right,cue_3,500ms,correct,0.41254574323102133
mGCP-III,27,2018-01-18_16:07,1,58,37_Caucasian_female_neutral_right.jpg,26_Caucasian_female_neutral_right.jpg,61_Caucasian_female_neutral_right.jpg,cue_right,target_F,target_left,cue_3,200ms,correct,0.5301157649810193
mGCP-III,27,2018-01-18_16:07,1,59,26_Caucasian_female_neutral_right.jpg,61_Caucasian_female_neutral_right.jpg,37_Caucasian_female_neutral_right.jpg,cue_right,target_F,target_left,cue_3,200ms,correct,0.4626123309099057
mGCP-III,27,2018-01-18_16:07,1,60,37_Caucasian_female_neutral_right.jpg,61_Caucasian_female_neutral_right.jpg,26_Caucasian_female_neutral_right.jpg,cue_right,target_F,target_right,cue_3,200ms,correct,0.46071603386008064
mGCP-III,27,2018-01-18_16:07,1,61,61_Caucasian_female_neutral_right.jpg,26_Caucasian_female_neutral_right.jpg,37_Caucasian_female_neutral_right.jpg,cue_right,target_F,target_left,cue_3,200ms,correct,0.5935516418976476
mGCP-III,27,2018-01-18_16:07,1,62,37_Caucasian_female_neutral_left.jpg,61_Caucasian_female_neutral_left.jpg,26_Caucasian_female_neutral_left.jpg,cue_left,target_F,target_right,cue_3,200ms,correct,0.44277706381399184
mGCP-III,27,2018-01-18_16:07,1,63,26_Caucasian_female_neutral_right.jpg,61_Caucasian_female_neutral_right.jpg,37_Caucasian_female_neutral_right.jpg,cue_right,target_F,target_right,cue_3,200ms,correct,0.49368513330773567
mGCP-III,27,2018-01-18_16:07,1,64,61_Caucasian_female_neutral_right.jpg,37_Caucasian_female_neutral_right.jpg,26_Caucasian_female_neutral_right.jpg,cue_right,target_E,target_left,cue_3,500ms,correct,0.5455844130701735
mGCP-III,27,2018-01-18_16:07,1,65,26_Caucasian_female_neutral_left.jpg,61_Caucasian_female_neutral_left.jpg,37_Caucasian_female_neutral_left.jpg,cue_left,target_F,target_left,cue_3,500ms,correct,0.7694146249523328
mGCP-III,27,2018-01-18_16:07,1,66,26_Caucasian_female_neutral_right.jpg,37_Caucasian_female_neutral_right.jpg,61_Caucasian_female_neutral_right.jpg,cue_right,target_E,target_right,cue_3,200ms,correct,0.4978309127254761
mGCP-III,27,2018-01-18_16:07,1,67,37_Caucasian_female_neutral_left.jpg,26_Caucasian_female_neutral_left.jpg,61_Caucasian_female_neutral_left.jpg,cue_left,target_E,target_left,cue_3,200ms,correct,0.48455485809608945
mGCP-III,27,2018-01-18_16:07,1,68,37_Caucasian_female_neutral_right.jpg,61_Caucasian_female_neutral_right.jpg,26_Caucasian_female_neutral_right.jpg,cue_right,target_E,target_left,cue_3,200ms,correct,0.5047437055764021
mGCP-III,27,2018-01-18_16:08,1,69,37_Caucasian_female_neutral_left.jpg,61_Caucasian_female_neutral_left.jpg,26_Caucasian_female_neutral_left.jpg,cue_left,target_E,target_left,cue_3,500ms,correct,0.5701857067397214
mGCP-III,27,2018-01-18_16:08,1,70,26_Caucasian_female_neutral_left.jpg,37_Caucasian_female_neutral_left.jpg,61_Caucasian_female_neutral_left.jpg,cue_left,target_E,target_left,cue_3,200ms,correct,0.47066448223995394
mGCP-III,27,2018-01-18_16:08,1,71,37_Caucasian_female_neutral_right.jpg,61_Caucasian_female_neutral_right.jpg,26_Caucasian_female_neutral_right.jpg,cue_right,target_F,target_left,cue_3,500ms,correct,0.4734741623615264
mGCP-III,27,2018-01-18_16:08,1,72,37_Caucasian_female_neutral_right.jpg,26_Caucasian_female_neutral_right.jpg,61_Caucasian_female_neutral_right.jpg,cue_right,target_F,target_left,cue_3,500ms,correct,0.5059770887819468
mGCP-III,27,2018-01-18_16:08,1,73,61_Caucasian_female_neutral_left.jpg,26_Caucasian_female_neutral_left.jpg,37_Caucasian_female_neutral_left.jpg,cue_left,target_E,target_left,cue_3,500ms,correct,0.5371616936936334
mGCP-III,27,2018-01-18_16:08,1,74,26_Caucasian_female_neutral_right.jpg,37_Caucasian_female_neutral_right.jpg,61_Caucasian_female_neutral_right.jpg,cue_right,target_E,target_left,cue_3,200ms,correct,0.4923577253757685
mGCP-III,27,2018-01-18_16:08,1,75,37_Caucasian_female_neutral_left.jpg,26_Caucasian_female_neutral_left.jpg,61_Caucasian_female_neutral_left.jpg,cue_left,target_E,target_right,cue_3,200ms,correct,0.46684976468168315
mGCP-III,27,2018-01-18_16:08,1,76,26_Caucasian_female_neutral_right.jpg,61_Caucasian_female_neutral_right.jpg,37_Caucasian_female_neutral_right.jpg,cue_right,target_E,target_right,cue_3,200ms,correct,0.472374705135735
mGCP-III,27,2018-01-18_16:08,1,77,61_Caucasian_female_neutral_right.jpg,37_Caucasian_female_neutral_right.jpg,26_Caucasian_female_neutral_right.jpg,cue_right,target_E,target_right,cue_3,200ms,correct,0.4095420877201832
mGCP-III,27,2018-01-18_16:08,1,78,26_Caucasian_female_neutral_left.jpg,61_Caucasian_female_neutral_left.jpg,37_Caucasian_female_neutral_left.jpg,cue_left,target_F,target_right,cue_3,500ms,incorrect,0.39261882177743246
mGCP-III,27,2018-01-18_16:08,1,79,26_Caucasian_female_neutral_left.jpg,37_Caucasian_female_neutral_left.jpg,61_Caucasian_female_neutral_left.jpg,cue_left,target_F,target_right,cue_3,200ms,correct,0.4590674406172184
mGCP-III,27,2018-01-18_16:08,1,80,37_Caucasian_female_neutral_left.jpg,61_Caucasian_female_neutral_left.jpg,26_Caucasian_female_neutral_left.jpg,cue_left,target_F,target_left,cue_3,500ms,correct,0.5465700924723933
mGCP-III,27,2018-01-18_16:08,1,81,61_Caucasian_female_neutral_left.jpg,37_Caucasian_female_neutral_left.jpg,26_Caucasian_female_neutral_left.jpg,cue_left,target_E,target_right,cue_3,200ms,correct,0.589877566369978
mGCP-III,27,2018-01-18_16:08,1,82,37_Caucasian_female_neutral_right.jpg,26_Caucasian_female_neutral_right.jpg,61_Caucasian_female_neutral_right.jpg,cue_right,target_E,target_left,cue_3,500ms,correct,0.6582406551060558
mGCP-III,27,2018-01-18_16:08,1,83,61_Caucasian_female_neutral_right.jpg,26_Caucasian_female_neutral_right.jpg,37_Caucasian_female_neutral_right.jpg,cue_right,target_F,target_right,cue_3,500ms,correct,0.3767377290823788
mGCP-III,27,2018-01-18_16:08,1,84,61_Caucasian_female_neutral_left.jpg,37_Caucasian_female_neutral_left.jpg,26_Caucasian_female_neutral_left.jpg,cue_left,target_F,target_right,cue_3,200ms,correct,0.6277284455245535
mGCP-III,27,2018-01-18_16:08,1,85,37_Caucasian_female_neutral_left.jpg,26_Caucasian_female_neutral_left.jpg,61_Caucasian_female_neutral_left.jpg,cue_left,target_F,target_right,cue_3,200ms,correct,0.4407488160977664
mGCP-III,27,2018-01-18_16:08,1,86,26_Caucasian_female_neutral_left.jpg,37_Caucasian_female_neutral_left.jpg,61_Caucasian_female_neutral_left.jpg,cue_left,target_F,target_left,cue_3,200ms,correct,0.47923218932919553
mGCP-III,27,2018-01-18_16:08,1,87,61_Caucasian_female_neutral_left.jpg,26_Caucasian_female_neutral_left.jpg,37_Caucasian_female_neutral_left.jpg,cue_left,target_E,target_right,cue_3,500ms,correct,0.5035277050956211
mGCP-III,27,2018-01-18_16:08,1,88,61_Caucasian_female_neutral_left.jpg,26_Caucasian_female_neutral_left.jpg,37_Caucasian_female_neutral_left.jpg,cue_left,target_F,target_left,cue_3,500ms,correct,0.42292046337388456
mGCP-III,27,2018-01-18_16:08,1,89,26_Caucasian_female_neutral_right.jpg,37_Caucasian_female_neutral_right.jpg,61_Caucasian_female_neutral_right.jpg,cue_right,target_F,target_left,cue_3,200ms,correct,0.5808266985986847
mGCP-III,27,2018-01-18_16:08,1,90,61_Caucasian_female_neutral_right.jpg,37_Caucasian_female_neutral_right.jpg,26_Caucasian_female_neutral_right.jpg,cue_right,target_E,target_right,cue_3,500ms,correct,0.43199661511243903
mGCP-III,27,2018-01-18_16:08,1,91,26_Caucasian_female_neutral_right.jpg,61_Caucasian_female_neutral_right.jpg,37_Caucasian_female_neutral_right.jpg,cue_right,target_E,target_left,cue_3,200ms,99,99
mGCP-III,27,2018-01-18_16:08,1,92,37_Caucasian_female_neutral_right.jpg,61_Caucasian_female_neutral_right.jpg,26_Caucasian_female_neutral_right.jpg,cue_right,target_E,target_left,cue_3,500ms,correct,0.43720116037366097
mGCP-III,27,2018-01-18_16:08,1,93,61_Caucasian_female_neutral_left.jpg,26_Caucasian_female_neutral_left.jpg,37_Caucasian_female_neutral_left.jpg,cue_left,target_E,target_left,cue_3,200ms,correct,0.5011834078759421
mGCP-III,27,2018-01-18_16:08,1,94,26_Caucasian_female_neutral_left.jpg,61_Caucasian_female_neutral_left.jpg,37_Caucasian_female_neutral_left.jpg,cue_left,target_F,target_left,cue_3,200ms,correct,0.6082562402989424
mGCP-III,27,2018-01-18_16:08,1,95,26_Caucasian_female_neutral_left.jpg,61_Caucasian_female_neutral_left.jpg,37_Caucasian_female_neutral_left.jpg,cue_left,target_F,target_right,cue_3,200ms,correct,0.43049972562948824
mGCP-III,27,2018-01-18_16:08,1,96,61_Caucasian_female_neutral_left.jpg,26_Caucasian_female_neutral_left.jpg,37_Caucasian_female_neutral_left.jpg,cue_left,target_F,target_right,cue_3,500ms,correct,0.4459288675279822
mGCP-III,27,2018-01-18_16:08,2,97,99,26_Caucasian_female_neutral_right.jpg,99,cue_right,target_E,target_right,cue_1,200ms,correct,0.5359634709966485
mGCP-III,27,2018-01-18_16:09,2,98,99,26_Caucasian_female_neutral_left.jpg,99,cue_left,target_F,target_right,cue_1,200ms,correct,0.6286260261258576
mGCP-III,27,2018-01-18_16:09,2,99,99,37_Caucasian_female_neutral_left.jpg,99,cue_left,target_F,target_right,cue_1,500ms,correct,0.4462200281377591
mGCP-III,27,2018-01-18_16:09,2,100,99,61_Caucasian_female_neutral_right.jpg,99,cue_right,target_E,target_left,cue_1,200ms,correct,0.5181979331136972
mGCP-III,27,2018-01-18_16:09,2,101,99,61_Caucasian_female_neutral_left.jpg,99,cue_left,target_E,target_left,cue_1,200ms,correct,0.7102442312061612
mGCP-III,27,2018-01-18_16:09,2,102,99,26_Caucasian_female_neutral_left.jpg,99,cue_left,target_E,target_left,cue_1,500ms,correct,0.4316161705137347
mGCP-III,27,2018-01-18_16:09,2,103,99,61_Caucasian_female_neutral_right.jpg,99,cue_right,target_E,target_right,cue_1,200ms,correct,0.576264523955615
mGCP-III,27,2018-01-18_16:09,2,104,99,26_Caucasian_female_neutral_left.jpg,99,cue_left,target_F,target_right,cue_1,200ms,correct,0.5286413940302737
mGCP-III,27,2018-01-18_16:09,2,105,99,26_Caucasian_female_neutral_left.jpg,99,cue_left,target_E,target_right,cue_1,200ms,correct,0.5435462888090115
mGCP-III,27,2018-01-18_16:09,2,106,99,61_Caucasian_female_neutral_left.jpg,99,cue_left,target_E,target_left,cue_1,500ms,correct,0.47185361851006746
mGCP-III,27,2018-01-18_16:09,2,107,99,26_Caucasian_female_neutral_right.jpg,99,cue_right,target_F,target_left,cue_1,500ms,correct,0.5631848150842416
mGCP-III,27,2018-01-18_16:09,2,108,99,26_Caucasian_female_neutral_right.jpg,99,cue_right,target_F,target_right,cue_1,500ms,correct,0.561529900849564
mGCP-III,27,2018-01-18_16:09,2,109,99,61_Caucasian_female_neutral_left.jpg,99,cue_left,target_E,target_left,cue_1,200ms,correct,0.4798228068430035
mGCP-III,27,2018-01-18_16:09,2,110,99,37_Caucasian_female_neutral_right.jpg,99,cue_right,target_E,target_right,cue_1,200ms,correct,0.5716936579556204
mGCP-III,27,2018-01-18_16:09,2,111,99,26_Caucasian_female_neutral_left.jpg,99,cue_left,target_F,target_left,cue_1,200ms,correct,0.6464709714455239
mGCP-III,27,2018-01-18_16:09,2,112,99,37_Caucasian_female_neutral_right.jpg,99,cue_right,target_F,target_right,cue_1,500ms,correct,0.5199768967795535
mGCP-III,27,2018-01-18_16:09,2,113,99,61_Caucasian_female_neutral_left.jpg,99,cue_left,target_F,target_right,cue_1,200ms,correct,0.44620067010691855
mGCP-III,27,2018-01-18_16:09,2,114,99,37_Caucasian_female_neutral_left.jpg,99,cue_left,target_F,target_left,cue_1,200ms,correct,0.4167108806759643
mGCP-III,27,2018-01-18_16:09,2,115,99,61_Caucasian_female_neutral_left.jpg,99,cue_left,target_E,target_right,cue_1,500ms,incorrect,0.387889140893094
mGCP-III,27,2018-01-18_16:09,2,116,99,37_Caucasian_female_neutral_left.jpg,99,cue_left,target_F,target_left,cue_1,200ms,correct,0.5964561368709838
mGCP-III,27,2018-01-18_16:09,2,117,99,61_Caucasian_female_neutral_right.jpg,99,cue_right,target_F,target_right,cue_1,200ms,correct,0.4840203393687261
mGCP-III,27,2018-01-18_16:09,2,118,99,61_Caucasian_female_neutral_left.jpg,99,cue_left,target_F,target_left,cue_1,500ms,correct,0.46763949338856037
mGCP-III,27,2018-01-18_16:09,2,119,99,37_Caucasian_female_neutral_left.jpg,99,cue_left,target_E,target_left,cue_1,200ms,correct,0.5656100999949558
mGCP-III,27,2018-01-18_16:09,2,120,99,61_Caucasian_female_neutral_left.jpg,99,cue_left,target_F,target_left,cue_1,200ms,correct,0.4479978066156036
mGCP-III,27,2018-01-18_16:09,2,121,99,37_Caucasian_female_neutral_right.jpg,99,cue_right,target_E,target_right,cue_1,500ms,correct,0.42851335447630845
mGCP-III,27,2018-01-18_16:09,2,122,99,37_Caucasian_female_neutral_left.jpg,99,cue_left,target_E,target_left,cue_1,500ms,correct,0.6208286897126527
mGCP-III,27,2018-01-18_16:09,2,123,99,37_Caucasian_female_neutral_left.jpg,99,cue_left,target_E,target_right,cue_1,200ms,correct,0.4872551060761907
mGCP-III,27,2018-01-18_16:09,2,124,99,26_Caucasian_female_neutral_left.jpg,99,cue_left,target_F,target_right,cue_1,500ms,correct,0.6974620039327419
mGCP-III,27,2018-01-18_16:09,2,125,99,61_Caucasian_female_neutral_left.jpg,99,cue_left,target_F,target_right,cue_1,500ms,correct,0.41547868265843135
mGCP-III,27,2018-01-18_16:09,2,126,99,37_Caucasian_female_neutral_left.jpg,99,cue_left,target_F,target_right,cue_1,500ms,incorrect,0.3370881331684359
mGCP-III,27,2018-01-18_16:09,2,127,99,37_Caucasian_female_neutral_right.jpg,99,cue_right,target_F,target_left,cue_1,500ms,correct,0.5629497532609093
mGCP-III,27,2018-01-18_16:09,2,128,99,61_Caucasian_female_neutral_right.jpg,99,cue_right,target_F,target_right,cue_1,500ms,correct,0.47400749590451596
mGCP-III,27,2018-01-18_16:09,2,129,99,26_Caucasian_female_neutral_left.jpg,99,cue_left,target_F,target_left,cue_1,500ms,correct,0.5691206199007866
mGCP-III,27,2018-01-18_16:10,2,130,99,37_Caucasian_female_neutral_right.jpg,99,cue_right,target_E,target_left,cue_1,500ms,correct,0.6421948216084274
mGCP-III,27,2018-01-18_16:10,2,131,99,37_Caucasian_female_neutral_left.jpg,99,cue_left,target_E,target_right,cue_1,500ms,correct,0.5270820847727009
mGCP-III,27,2018-01-18_16:10,2,132,99,26_Caucasian_female_neutral_left.jpg,99,cue_left,target_E,target_left,cue_1,200ms,correct,0.6100091298794723
mGCP-III,27,2018-01-18_16:10,2,133,99,26_Caucasian_female_neutral_left.jpg,99,cue_left,target_E,target_left,cue_1,200ms,correct,0.5741655601632374
mGCP-III,27,2018-01-18_16:10,2,134,99,37_Caucasian_female_neutral_right.jpg,99,cue_right,target_F,target_left,cue_1,200ms,correct,0.5743729676541989
mGCP-III,27,2018-01-18_16:10,2,135,99,61_Caucasian_female_neutral_right.jpg,99,cue_right,target_E,target_left,cue_1,500ms,correct,0.4274976503693324
mGCP-III,27,2018-01-18_16:10,2,136,99,37_Caucasian_female_neutral_right.jpg,99,cue_right,target_E,target_left,cue_1,200ms,correct,0.5055227676130016
mGCP-III,27,2018-01-18_16:10,2,137,99,37_Caucasian_female_neutral_right.jpg,99,cue_right,target_E,target_right,cue_1,200ms,correct,0.5533920210946235
mGCP-III,27,2018-01-18_16:10,2,138,99,26_Caucasian_female_neutral_right.jpg,99,cue_right,target_E,target_right,cue_1,200ms,correct,0.401109096736036
mGCP-III,27,2018-01-18_16:10,2,139,99,61_Caucasian_female_neutral_left.jpg,99,cue_left,target_E,target_left,cue_1,500ms,correct,0.47359347104793414
mGCP-III,27,2018-01-18_16:10,2,140,99,37_Caucasian_female_neutral_right.jpg,99,cue_right,target_F,target_left,cue_1,200ms,correct,0.4892347611785226
mGCP-III,27,2018-01-18_16:10,2,141,99,61_Caucasian_female_neutral_right.jpg,99,cue_right,target_F,target_left,cue_1,200ms,correct,0.5028079023431928
mGCP-III,27,2018-01-18_16:10,2,142,99,61_Caucasian_female_neutral_right.jpg,99,cue_right,target_F,target_right,cue_1,200ms,correct,0.5358868289913516
mGCP-III,27,2018-01-18_16:10,2,143,99,61_Caucasian_female_neutral_left.jpg,99,cue_left,target_F,target_right,cue_1,200ms,correct,0.4733145573591173
mGCP-III,27,2018-01-18_16:10,2,144,99,61_Caucasian_female_neutral_right.jpg,99,cue_right,target_F,target_right,cue_1,500ms,correct,0.4071456423298514
mGCP-III,27,2018-01-18_16:10,2,145,99,61_Caucasian_female_neutral_left.jpg,99,cue_left,target_E,target_right,cue_1,200ms,correct,0.5556363676587353
mGCP-III,27,2018-01-18_16:10,2,146,99,37_Caucasian_female_neutral_right.jpg,99,cue_right,target_E,target_left,cue_1,200ms,incorrect,0.49333589860179927
mGCP-III,27,2018-01-18_16:10,2,147,99,61_Caucasian_female_neutral_left.jpg,99,cue_left,target_F,target_left,cue_1,500ms,correct,0.5066253853328817
mGCP-III,27,2018-01-18_16:10,2,148,99,26_Caucasian_female_neutral_right.jpg,99,cue_right,target_F,target_left,cue_1,500ms,correct,0.516819562199089
mGCP-III,27,2018-01-18_16:10,2,149,99,26_Caucasian_female_neutral_right.jpg,99,cue_right,target_E,target_right,cue_1,500ms,correct,0.4861157476007065
mGCP-III,27,2018-01-18_16:10,2,150,99,37_Caucasian_female_neutral_left.jpg,99,cue_left,target_F,target_left,cue_1,500ms,correct,0.5521823416020197
mGCP-III,27,2018-01-18_16:10,2,151,99,37_Caucasian_female_neutral_right.jpg,99,cue_right,target_E,target_left,cue_1,500ms,99,99
mGCP-III,27,2018-01-18_16:10,2,152,99,26_Caucasian_female_neutral_right.jpg,99,cue_right,target_E,target_left,cue_1,200ms,correct,0.7090045270160772
mGCP-III,27,2018-01-18_16:10,2,153,99,61_Caucasian_female_neutral_right.jpg,99,cue_right,target_F,target_left,cue_1,500ms,correct,0.46357233128583175
mGCP-III,27,2018-01-18_16:10,2,154,99,26_Caucasian_female_neutral_right.jpg,99,cue_right,target_F,target_right,cue_1,200ms,correct,0.48353401818530983
mGCP-III,27,2018-01-18_16:10,2,155,99,26_Caucasian_female_neutral_right.jpg,99,cue_right,target_E,target_left,cue_1,500ms,correct,0.4644197390298359
mGCP-III,27,2018-01-18_16:10,2,156,99,26_Caucasian_female_neutral_left.jpg,99,cue_left,target_E,target_right,cue_1,500ms,correct,0.42282920407888014
mGCP-III,27,2018-01-18_16:10,2,157,99,37_Caucasian_female_neutral_left.jpg,99,cue_left,target_E,target_left,cue_1,500ms,correct,0.405805197355221
mGCP-III,27,2018-01-18_16:10,2,158,99,37_Caucasian_female_neutral_right.jpg,99,cue_right,target_F,target_right,cue_1,200ms,correct,0.6277019763765566
mGCP-III,27,2018-01-18_16:10,2,159,99,26_Caucasian_female_neutral_right.jpg,99,cue_right,target_E,target_left,cue_1,500ms,correct,0.36737397229808266
mGCP-III,27,2018-01-18_16:11,2,160,99,37_Caucasian_female_neutral_left.jpg,99,cue_left,target_F,target_right,cue_1,200ms,correct,0.4858826610907272
mGCP-III,27,2018-01-18_16:11,2,161,99,37_Caucasian_female_neutral_right.jpg,99,cue_right,target_F,target_right,cue_1,500ms,correct,0.5033384704547643
mGCP-III,27,2018-01-18_16:11,2,162,99,61_Caucasian_female_neutral_left.jpg,99,cue_left,target_E,target_right,cue_1,500ms,correct,0.4291893053596141
mGCP-III,27,2018-01-18_16:11,2,163,99,61_Caucasian_female_neutral_right.jpg,99,cue_right,target_E,target_right,cue_1,200ms,correct,0.4480902510949818
mGCP-III,27,2018-01-18_16:11,2,164,99,26_Caucasian_female_neutral_right.jpg,99,cue_right,target_F,target_left,cue_1,200ms,correct,0.47444403928602696
mGCP-III,27,2018-01-18_16:11,2,165,99,26_Caucasian_female_neutral_right.jpg,99,cue_right,target_F,target_right,cue_1,200ms,correct,0.37328607339804876
mGCP-III,27,2018-01-18_16:11,2,166,99,37_Caucasian_female_neutral_left.jpg,99,cue_left,target_F,target_left,cue_1,500ms,correct,0.41922623969367123
mGCP-III,27,2018-01-18_16:11,2,167,99,26_Caucasian_female_neutral_left.jpg,99,cue_left,target_E,target_right,cue_1,500ms,correct,0.4833084378478816
mGCP-III,27,2018-01-18_16:11,2,168,99,37_Caucasian_female_neutral_left.jpg,99,cue_left,target_E,target_right,cue_1,500ms,correct,0.5140351660411397
mGCP-III,27,2018-01-18_16:11,2,169,99,26_Caucasian_female_neutral_right.jpg,99,cue_right,target_E,target_left,cue_1,200ms,correct,0.6385732893104432
mGCP-III,27,2018-01-18_16:11,2,170,99,37_Caucasian_female_neutral_left.jpg,99,cue_left,target_F,target_right,cue_1,200ms,correct,0.4750105580278614
mGCP-III,27,2018-01-18_16:11,2,171,99,26_Caucasian_female_neutral_left.jpg,99,cue_left,target_E,target_left,cue_1,500ms,correct,0.39135857436122024
mGCP-III,27,2018-01-18_16:11,2,172,99,61_Caucasian_female_neutral_left.jpg,99,cue_left,target_E,target_right,cue_1,200ms,correct,0.4378308890227345
mGCP-III,27,2018-01-18_16:11,2,173,99,61_Caucasian_female_neutral_left.jpg,99,cue_left,target_F,target_left,cue_1,200ms,correct,0.4609234413546801
mGCP-III,27,2018-01-18_16:11,2,174,99,26_Caucasian_female_neutral_right.jpg,99,cue_right,target_E,target_right,cue_1,500ms,correct,0.4152199171221582
mGCP-III,27,2018-01-18_16:11,2,175,99,26_Caucasian_female_neutral_left.jpg,99,cue_left,target_F,target_left,cue_1,500ms,incorrect,0.5133864744238963
mGCP-III,27,2018-01-18_16:11,2,176,99,26_Caucasian_female_neutral_left.jpg,99,cue_left,target_F,target_left,cue_1,200ms,correct,0.5441416470675904
mGCP-III,27,2018-01-18_16:11,2,177,99,61_Caucasian_female_neutral_right.jpg,99,cue_right,target_E,target_right,cue_1,500ms,correct,0.3552807329506322
mGCP-III,27,2018-01-18_16:11,2,178,99,61_Caucasian_female_neutral_right.jpg,99,cue_right,target_E,target_right,cue_1,500ms,correct,0.4405453592262347
mGCP-III,27,2018-01-18_16:11,2,179,99,61_Caucasian_female_neutral_right.jpg,99,cue_right,target_F,target_left,cue_1,200ms,correct,0.45305143824225524
mGCP-III,27,2018-01-18_16:11,2,180,99,26_Caucasian_female_neutral_left.jpg,99,cue_left,target_E,target_right,cue_1,200ms,correct,0.7770187761052512
mGCP-III,27,2018-01-18_16:11,2,181,99,61_Caucasian_female_neutral_right.jpg,99,cue_right,target_F,target_left,cue_1,500ms,correct,0.5297092463042645
mGCP-III,27,2018-01-18_16:11,2,182,99,37_Caucasian_female_neutral_right.jpg,99,cue_right,target_F,target_left,cue_1,500ms,correct,0.5740379551752994
mGCP-III,27,2018-01-18_16:11,2,183,99,26_Caucasian_female_neutral_right.jpg,99,cue_right,target_F,target_right,cue_1,500ms,correct,0.5352981867836206
mGCP-III,27,2018-01-18_16:11,2,184,99,61_Caucasian_female_neutral_left.jpg,99,cue_left,target_F,target_right,cue_1,500ms,correct,0.41516302821037243
mGCP-III,27,2018-01-18_16:11,2,185,99,61_Caucasian_female_neutral_right.jpg,99,cue_right,target_E,target_left,cue_1,500ms,correct,0.5445746348923421
mGCP-III,27,2018-01-18_16:11,2,186,99,26_Caucasian_female_neutral_right.jpg,99,cue_right,target_F,target_left,cue_1,200ms,correct,0.44503168198571075
mGCP-III,27,2018-01-18_16:11,2,187,99,61_Caucasian_female_neutral_right.jpg,99,cue_right,target_E,target_left,cue_1,200ms,incorrect,0.45341805566931725
mGCP-III,27,2018-01-18_16:11,2,188,99,37_Caucasian_female_neutral_left.jpg,99,cue_left,target_E,target_left,cue_1,200ms,correct,0.5213074652056093
mGCP-III,27,2018-01-18_16:11,2,189,99,37_Caucasian_female_neutral_right.jpg,99,cue_right,target_E,target_right,cue_1,500ms,correct,0.37062414642059593
mGCP-III,27,2018-01-18_16:11,2,190,99,37_Caucasian_female_neutral_left.jpg,99,cue_left,target_E,target_right,cue_1,200ms,correct,0.39026662331525586
mGCP-III,27,2018-01-18_16:11,2,191,99,37_Caucasian_female_neutral_right.jpg,99,cue_right,target_F,target_right,cue_1,200ms,correct,0.6849290607133298
mGCP-III,27,2018-01-18_16:12,2,192,99,26_Caucasian_female_neutral_left.jpg,99,cue_left,target_F,target_right,cue_1,500ms,correct,0.45240274662864977
mGCP-III,27,2018-01-18_16:12,3,193,61_Caucasian_female_neutral_left.jpg,26_Caucasian_female_neutral_left.jpg,37_Caucasian_female_neutral_left.jpg,cue_left,target_E,target_left,cue_3,500ms,correct,0.6027028553908167
mGCP-III,27,2018-01-18_16:12,3,194,61_Caucasian_female_neutral_left.jpg,26_Caucasian_female_neutral_left.jpg,37_Caucasian_female_neutral_left.jpg,cue_left,target_F,target_right,cue_3,500ms,correct,0.5602506904688198
mGCP-III,27,2018-01-18_16:12,3,195,37_Caucasian_female_neutral_left.jpg,26_Caucasian_female_neutral_left.jpg,61_Caucasian_female_neutral_left.jpg,cue_left,target_E,target_left,cue_3,500ms,correct,0.42464253813159303
mGCP-III,27,2018-01-18_16:12,3,196,61_Caucasian_female_neutral_right.jpg,37_Caucasian_female_neutral_right.jpg,26_Caucasian_female_neutral_right.jpg,cue_right,target_E,target_left,cue_3,200ms,correct,0.5534022927022306
mGCP-III,27,2018-01-18_16:12,3,197,26_Caucasian_female_neutral_right.jpg,61_Caucasian_female_neutral_right.jpg,37_Caucasian_female_neutral_right.jpg,cue_right,target_F,target_left,cue_3,500ms,correct,0.43209972625845694
mGCP-III,27,2018-01-18_16:12,3,198,26_Caucasian_female_neutral_left.jpg,37_Caucasian_female_neutral_left.jpg,61_Caucasian_female_neutral_left.jpg,cue_left,target_F,target_left,cue_3,200ms,correct,0.4997584196571552
mGCP-III,27,2018-01-18_16:12,3,199,61_Caucasian_female_neutral_left.jpg,37_Caucasian_female_neutral_left.jpg,26_Caucasian_female_neutral_left.jpg,cue_left,target_F,target_left,cue_3,500ms,correct,0.3175317797649768
mGCP-III,27,2018-01-18_16:12,3,200,26_Caucasian_female_neutral_right.jpg,37_Caucasian_female_neutral_right.jpg,61_Caucasian_female_neutral_right.jpg,cue_right,target_E,target_left,cue_3,200ms,correct,0.6427629205973062
mGCP-III,27,2018-01-18_16:12,3,201,26_Caucasian_female_neutral_left.jpg,61_Caucasian_female_neutral_left.jpg,37_Caucasian_female_neutral_left.jpg,cue_left,target_F,target_right,cue_3,500ms,correct,0.46771850576260476
mGCP-III,27,2018-01-18_16:12,3,202,26_Caucasian_female_neutral_right.jpg,37_Caucasian_female_neutral_right.jpg,61_Caucasian_female_neutral_right.jpg,cue_right,target_F,target_left,cue_3,500ms,correct,0.5020071119070053
mGCP-III,27,2018-01-18_16:12,3,203,37_Caucasian_female_neutral_left.jpg,61_Caucasian_female_neutral_left.jpg,26_Caucasian_female_neutral_left.jpg,cue_left,target_E,target_left,cue_3,200ms,correct,0.6398884503250883
mGCP-III,27,2018-01-18_16:12,3,204,61_Caucasian_female_neutral_left.jpg,37_Caucasian_female_neutral_left.jpg,26_Caucasian_female_neutral_left.jpg,cue_left,target_E,target_left,cue_3,500ms,correct,0.6050566340963996
mGCP-III,27,2018-01-18_16:12,3,205,37_Caucasian_female_neutral_right.jpg,61_Caucasian_female_neutral_right.jpg,26_Caucasian_female_neutral_right.jpg,cue_right,target_E,target_left,cue_3,200ms,correct,0.6971649173974583
mGCP-III,27,2018-01-18_16:12,3,206,37_Caucasian_female_neutral_right.jpg,26_Caucasian_female_neutral_right.jpg,61_Caucasian_female_neutral_right.jpg,cue_right,target_E,target_right,cue_3,200ms,correct,0.7658381297151209
mGCP-III,27,2018-01-18_16:12,3,207,26_Caucasian_female_neutral_left.jpg,37_Caucasian_female_neutral_left.jpg,61_Caucasian_female_neutral_left.jpg,cue_left,target_E,target_right,cue_3,500ms,incorrect,0.5241191206368967
mGCP-III,27,2018-01-18_16:12,3,208,61_Caucasian_female_neutral_left.jpg,37_Caucasian_female_neutral_left.jpg,26_Caucasian_female_neutral_left.jpg,cue_left,target_E,target_left,cue_3,200ms,99,99
mGCP-III,27,2018-01-18_16:12,3,209,37_Caucasian_female_neutral_left.jpg,61_Caucasian_female_neutral_left.jpg,26_Caucasian_female_neutral_left.jpg,cue_left,target_E,target_left,cue_3,500ms,correct,0.39522267465508776
mGCP-III,27,2018-01-18_16:12,3,210,61_Caucasian_female_neutral_right.jpg,37_Caucasian_female_neutral_right.jpg,26_Caucasian_female_neutral_right.jpg,cue_right,target_F,target_right,cue_3,500ms,correct,0.4201629314193269
mGCP-III,27,2018-01-18_16:12,3,211,37_Caucasian_female_neutral_left.jpg,61_Caucasian_female_neutral_left.jpg,26_Caucasian_female_neutral_left.jpg,cue_left,target_F,target_left,cue_3,500ms,correct,0.47835080626100535
mGCP-III,27,2018-01-18_16:12,3,212,37_Caucasian_female_neutral_right.jpg,26_Caucasian_female_neutral_right.jpg,61_Caucasian_female_neutral_right.jpg,cue_right,target_F,target_right,cue_3,500ms,correct,0.43904530925283325
mGCP-III,27,2018-01-18_16:12,3,213,61_Caucasian_female_neutral_right.jpg,26_Caucasian_female_neutral_right.jpg,37_Caucasian_female_neutral_right.jpg,cue_right,target_E,target_right,cue_3,200ms,correct,0.4464961763951578
mGCP-III,27,2018-01-18_16:12,3,214,26_Caucasian_female_neutral_right.jpg,61_Caucasian_female_neutral_right.jpg,37_Caucasian_female_neutral_right.jpg,cue_right,target_E,target_left,cue_3,500ms,correct,0.44875395506460336
mGCP-III,27,2018-01-18_16:12,3,215,37_Caucasian_female_neutral_right.jpg,61_Caucasian_female_neutral_right.jpg,26_Caucasian_female_neutral_right.jpg,cue_right,target_E,target_left,cue_3,500ms,correct,0.5916296658288047
mGCP-III,27,2018-01-18_16:12,3,216,26_Caucasian_female_neutral_right.jpg,61_Caucasian_female_neutral_right.jpg,37_Caucasian_female_neutral_right.jpg,cue_right,target_F,target_left,cue_3,200ms,correct,0.4408906433127413
mGCP-III,27,2018-01-18_16:12,3,217,37_Caucasian_female_neutral_right.jpg,61_Caucasian_female_neutral_right.jpg,26_Caucasian_female_neutral_right.jpg,cue_right,target_E,target_right,cue_3,200ms,correct,0.49863091303996043
mGCP-III,27,2018-01-18_16:12,3,218,26_Caucasian_female_neutral_left.jpg,37_Caucasian_female_neutral_left.jpg,61_Caucasian_female_neutral_left.jpg,cue_left,target_F,target_left,cue_3,500ms,correct,0.5646323218315956
mGCP-III,27,2018-01-18_16:13,3,219,37_Caucasian_female_neutral_left.jpg,26_Caucasian_female_neutral_left.jpg,61_Caucasian_female_neutral_left.jpg,cue_left,target_F,target_right,cue_3,500ms,correct,0.4070211978360021
mGCP-III,27,2018-01-18_16:13,3,220,26_Caucasian_female_neutral_left.jpg,61_Caucasian_female_neutral_left.jpg,37_Caucasian_female_neutral_left.jpg,cue_left,target_E,target_left,cue_3,500ms,correct,0.46795593795832247
mGCP-III,27,2018-01-18_16:13,3,221,61_Caucasian_female_neutral_right.jpg,37_Caucasian_female_neutral_right.jpg,26_Caucasian_female_neutral_right.jpg,cue_right,target_E,target_right,cue_3,200ms,correct,0.44269173044449417
mGCP-III,27,2018-01-18_16:13,3,222,26_Caucasian_female_neutral_left.jpg,61_Caucasian_female_neutral_left.jpg,37_Caucasian_female_neutral_left.jpg,cue_left,target_F,target_left,cue_3,500ms,correct,0.31152486381324707
mGCP-III,27,2018-01-18_16:13,3,223,61_Caucasian_female_neutral_right.jpg,26_Caucasian_female_neutral_right.jpg,37_Caucasian_female_neutral_right.jpg,cue_right,target_F,target_left,cue_3,500ms,correct,0.35812201802400523
mGCP-III,27,2018-01-18_16:13,3,224,26_Caucasian_female_neutral_left.jpg,37_Caucasian_female_neutral_left.jpg,61_Caucasian_female_neutral_left.jpg,cue_left,target_E,target_left,cue_3,200ms,correct,0.5027790628264484
mGCP-III,27,2018-01-18_16:13,3,225,37_Caucasian_female_neutral_left.jpg,26_Caucasian_female_neutral_left.jpg,61_Caucasian_female_neutral_left.jpg,cue_left,target_F,target_left,cue_3,200ms,correct,0.47262003856667434
mGCP-III,27,2018-01-18_16:13,3,226,61_Caucasian_female_neutral_right.jpg,26_Caucasian_female_neutral_right.jpg,37_Caucasian_female_neutral_right.jpg,cue_right,target_E,target_right,cue_3,500ms,correct,0.4023677639015659
mGCP-III,27,2018-01-18_16:13,3,227,26_Caucasian_female_neutral_right.jpg,61_Caucasian_female_neutral_right.jpg,37_Caucasian_female_neutral_right.jpg,cue_right,target_F,target_right,cue_3,200ms,correct,0.43127365186228417
mGCP-III,27,2018-01-18_16:13,3,228,61_Caucasian_female_neutral_left.jpg,26_Caucasian_female_neutral_left.jpg,37_Caucasian_female_neutral_left.jpg,cue_left,target_E,target_right,cue_3,200ms,correct,0.49293214535646257
mGCP-III,27,2018-01-18_16:13,3,229,61_Caucasian_female_neutral_right.jpg,37_Caucasian_female_neutral_right.jpg,26_Caucasian_female_neutral_right.jpg,cue_right,target_E,target_right,cue_3,500ms,correct,0.500661926187604
mGCP-III,27,2018-01-18_16:13,3,230,37_Caucasian_female_neutral_left.jpg,61_Caucasian_female_neutral_left.jpg,26_Caucasian_female_neutral_left.jpg,cue_left,target_F,target_right,cue_3,200ms,correct,0.41138663165838807
mGCP-III,27,2018-01-18_16:13,3,231,37_Caucasian_female_neutral_right.jpg,61_Caucasian_female_neutral_right.jpg,26_Caucasian_female_neutral_right.jpg,cue_right,target_F,target_left,cue_3,200ms,correct,0.4858546116956859
mGCP-III,27,2018-01-18_16:13,3,232,26_Caucasian_female_neutral_right.jpg,37_Caucasian_female_neutral_right.jpg,61_Caucasian_female_neutral_right.jpg,cue_right,target_F,target_right,cue_3,500ms,correct,0.4452987438198761
mGCP-III,27,2018-01-18_16:13,3,233,61_Caucasian_female_neutral_right.jpg,37_Caucasian_female_neutral_right.jpg,26_Caucasian_female_neutral_right.jpg,cue_right,target_E,target_left,cue_3,500ms,correct,0.4328811586674419
mGCP-III,27,2018-01-18_16:13,3,234,61_Caucasian_female_neutral_left.jpg,37_Caucasian_female_neutral_left.jpg,26_Caucasian_female_neutral_left.jpg,cue_left,target_F,target_right,cue_3,200ms,correct,0.3841573863319354
mGCP-III,27,2018-01-18_16:13,3,235,26_Caucasian_female_neutral_right.jpg,61_Caucasian_female_neutral_right.jpg,37_Caucasian_female_neutral_right.jpg,cue_right,target_F,target_right,cue_3,500ms,correct,0.4097159149496292
mGCP-III,27,2018-01-18_16:13,3,236,61_Caucasian_female_neutral_right.jpg,26_Caucasian_female_neutral_right.jpg,37_Caucasian_female_neutral_right.jpg,cue_right,target_E,target_left,cue_3,500ms,correct,0.4327630351654079
mGCP-III,27,2018-01-18_16:13,3,237,61_Caucasian_female_neutral_right.jpg,26_Caucasian_female_neutral_right.jpg,37_Caucasian_female_neutral_right.jpg,cue_right,target_F,target_left,cue_3,200ms,correct,0.484791500166466
mGCP-III,27,2018-01-18_16:13,3,238,61_Caucasian_female_neutral_left.jpg,37_Caucasian_female_neutral_left.jpg,26_Caucasian_female_neutral_left.jpg,cue_left,target_F,target_right,cue_3,500ms,incorrect,0.2995548837752722
mGCP-III,27,2018-01-18_16:13,3,239,26_Caucasian_female_neutral_right.jpg,37_Caucasian_female_neutral_right.jpg,61_Caucasian_female_neutral_right.jpg,cue_right,target_F,target_right,cue_3,200ms,correct,0.3876615852495888
mGCP-III,27,2018-01-18_16:13,3,240,37_Caucasian_female_neutral_right.jpg,26_Caucasian_female_neutral_right.jpg,61_Caucasian_female_neutral_right.jpg,cue_right,target_F,target_left,cue_3,200ms,correct,0.3614768835468567
mGCP-III,27,2018-01-18_16:13,3,241,61_Caucasian_female_neutral_right.jpg,37_Caucasian_female_neutral_right.jpg,26_Caucasian_female_neutral_right.jpg,cue_right,target_F,target_left,cue_3,500ms,correct,0.3761040498211514
mGCP-III,27,2018-01-18_16:13,3,242,26_Caucasian_female_neutral_left.jpg,37_Caucasian_female_neutral_left.jpg,61_Caucasian_female_neutral_left.jpg,cue_left,target_F,target_right,cue_3,500ms,correct,0.37583738304965664
mGCP-III,27,2018-01-18_16:13,3,243,37_Caucasian_female_neutral_left.jpg,26_Caucasian_female_neutral_left.jpg,61_Caucasian_female_neutral_left.jpg,cue_left,target_E,target_left,cue_3,200ms,correct,0.4879053779368405
mGCP-III,27,2018-01-18_16:13,3,244,26_Caucasian_female_neutral_right.jpg,61_Caucasian_female_neutral_right.jpg,37_Caucasian_female_neutral_right.jpg,cue_right,target_E,target_left,cue_3,200ms,correct,0.6397746725015168
mGCP-III,27,2018-01-18_16:13,3,245,61_Caucasian_female_neutral_left.jpg,26_Caucasian_female_neutral_left.jpg,37_Caucasian_female_neutral_left.jpg,cue_left,target_F,target_right,cue_3,200ms,correct,0.4278184406211949
mGCP-III,27,2018-01-18_16:13,3,246,37_Caucasian_female_neutral_left.jpg,61_Caucasian_female_neutral_left.jpg,26_Caucasian_female_neutral_left.jpg,cue_left,target_F,target_right,cue_3,500ms,correct,0.3902879566558113
mGCP-III,27,2018-01-18_16:13,3,247,26_Caucasian_female_neutral_right.jpg,37_Caucasian_female_neutral_right.jpg,61_Caucasian_female_neutral_right.jpg,cue_right,target_E,target_left,cue_3,500ms,incorrect,0.33632724398194114
mGCP-III,27,2018-01-18_16:13,3,248,37_Caucasian_female_neutral_right.jpg,61_Caucasian_female_neutral_right.jpg,26_Caucasian_female_neutral_right.jpg,cue_right,target_F,target_left,cue_3,500ms,correct,0.5741110416238371
mGCP-III,27,2018-01-18_16:13,3,249,37_Caucasian_female_neutral_left.jpg,26_Caucasian_female_neutral_left.jpg,61_Caucasian_female_neutral_left.jpg,cue_left,target_E,target_right,cue_3,200ms,correct,0.50039170385935
mGCP-III,27,2018-01-18_16:13,3,250,26_Caucasian_female_neutral_left.jpg,61_Caucasian_female_neutral_left.jpg,37_Caucasian_female_neutral_left.jpg,cue_left,target_E,target_right,cue_3,200ms,correct,0.42927700909785926
mGCP-III,27,2018-01-18_16:14,3,251,37_Caucasian_female_neutral_left.jpg,61_Caucasian_female_neutral_left.jpg,26_Caucasian_female_neutral_left.jpg,cue_left,target_E,target_right,cue_3,500ms,correct,0.6498688987121568
mGCP-III,27,2018-01-18_16:14,3,252,61_Caucasian_female_neutral_left.jpg,37_Caucasian_female_neutral_left.jpg,26_Caucasian_female_neutral_left.jpg,cue_left,target_E,target_right,cue_3,200ms,correct,0.3751705185859464
mGCP-III,27,2018-01-18_16:14,3,253,37_Caucasian_female_neutral_right.jpg,61_Caucasian_female_neutral_right.jpg,26_Caucasian_female_neutral_right.jpg,cue_right,target_F,target_right,cue_3,500ms,incorrect,0.38393773192728986
mGCP-III,27,2018-01-18_16:14,3,254,26_Caucasian_female_neutral_left.jpg,37_Caucasian_female_neutral_left.jpg,61_Caucasian_female_neutral_left.jpg,cue_left,target_E,target_right,cue_3,200ms,correct,0.5686445703286154
mGCP-III,27,2018-01-18_16:14,3,255,61_Caucasian_female_neutral_left.jpg,37_Caucasian_female_neutral_left.jpg,26_Caucasian_female_neutral_left.jpg,cue_left,target_E,target_right,cue_3,500ms,correct,0.36686394740172545
mGCP-III,27,2018-01-18_16:14,3,256,37_Caucasian_female_neutral_right.jpg,61_Caucasian_female_neutral_right.jpg,26_Caucasian_female_neutral_right.jpg,cue_right,target_F,target_right,cue_3,200ms,correct,0.5071373855353158
mGCP-III,27,2018-01-18_16:14,3,257,37_Caucasian_female_neutral_right.jpg,26_Caucasian_female_neutral_right.jpg,61_Caucasian_female_neutral_right.jpg,cue_right,target_F,target_left,cue_3,500ms,correct,0.6428316613673815
mGCP-III,27,2018-01-18_16:14,3,258,61_Caucasian_female_neutral_left.jpg,26_Caucasian_female_neutral_left.jpg,37_Caucasian_female_neutral_left.jpg,cue_left,target_F,target_left,cue_3,200ms,correct,0.5136495856386318
mGCP-III,27,2018-01-18_16:14,3,259,37_Caucasian_female_neutral_right.jpg,26_Caucasian_female_neutral_right.jpg,61_Caucasian_female_neutral_right.jpg,cue_right,target_E,target_right,cue_3,500ms,correct,0.45294240116345463
mGCP-III,27,2018-01-18_16:14,3,260,26_Caucasian_female_neutral_right.jpg,37_Caucasian_female_neutral_right.jpg,61_Caucasian_female_neutral_right.jpg,cue_right,target_E,target_right,cue_3,200ms,correct,0.5118769429645909
mGCP-III,27,2018-01-18_16:14,3,261,37_Caucasian_female_neutral_left.jpg,26_Caucasian_female_neutral_left.jpg,61_Caucasian_female_neutral_left.jpg,cue_left,target_E,target_right,cue_3,500ms,correct,0.4742599404489738
mGCP-III,27,2018-01-18_16:14,3,262,61_Caucasian_female_neutral_left.jpg,26_Caucasian_female_neutral_left.jpg,37_Caucasian_female_neutral_left.jpg,cue_left,target_E,target_right,cue_3,500ms,correct,0.4249577975133434
mGCP-III,27,2018-01-18_16:14,3,263,61_Caucasian_female_neutral_right.jpg,26_Caucasian_female_neutral_right.jpg,37_Caucasian_female_neutral_right.jpg,cue_right,target_F,target_right,cue_3,500ms,incorrect,0.30852950460393913
mGCP-III,27,2018-01-18_16:14,3,264,26_Caucasian_female_neutral_left.jpg,61_Caucasian_female_neutral_left.jpg,37_Caucasian_female_neutral_left.jpg,cue_left,target_E,target_right,cue_3,500ms,correct,0.4925825155878556
mGCP-III,27,2018-01-18_16:14,3,265,61_Caucasian_female_neutral_left.jpg,26_Caucasian_female_neutral_left.jpg,37_Caucasian_female_neutral_left.jpg,cue_left,target_F,target_left,cue_3,500ms,correct,0.3987881081629894
mGCP-III,27,2018-01-18_16:14,3,266,61_Caucasian_female_neutral_right.jpg,37_Caucasian_female_neutral_right.jpg,26_Caucasian_female_neutral_right.jpg,cue_right,target_F,target_left,cue_3,200ms,correct,0.3902926973969443
mGCP-III,27,2018-01-18_16:14,3,267,26_Caucasian_female_neutral_left.jpg,61_Caucasian_female_neutral_left.jpg,37_Caucasian_female_neutral_left.jpg,cue_left,target_F,target_right,cue_3,200ms,incorrect,0.3963414899117197
mGCP-III,27,2018-01-18_16:14,3,268,26_Caucasian_female_neutral_left.jpg,61_Caucasian_female_neutral_left.jpg,37_Caucasian_female_neutral_left.jpg,cue_left,target_E,target_left,cue_3,200ms,correct,0.4971589124579623
mGCP-III,27,2018-01-18_16:14,3,269,37_Caucasian_female_neutral_left.jpg,26_Caucasian_female_neutral_left.jpg,61_Caucasian_female_neutral_left.jpg,cue_left,target_F,target_left,cue_3,500ms,correct,0.4571569213476323
mGCP-III,27,2018-01-18_16:14,3,270,37_Caucasian_female_neutral_left.jpg,61_Caucasian_female_neutral_left.jpg,26_Caucasian_female_neutral_left.jpg,cue_left,target_E,target_right,cue_3,200ms,correct,0.4856448338359769
mGCP-III,27,2018-01-18_16:14,3,271,37_Caucasian_female_neutral_right.jpg,26_Caucasian_female_neutral_right.jpg,61_Caucasian_female_neutral_right.jpg,cue_right,target_F,target_right,cue_3,200ms,99,99
mGCP-III,27,2018-01-18_16:14,3,272,37_Caucasian_female_neutral_right.jpg,26_Caucasian_female_neutral_right.jpg,61_Caucasian_female_neutral_right.jpg,cue_right,target_E,target_left,cue_3,200ms,correct,0.5157908210530877
mGCP-III,27,2018-01-18_16:14,3,273,26_Caucasian_female_neutral_left.jpg,37_Caucasian_female_neutral_left.jpg,61_Caucasian_female_neutral_left.jpg,cue_left,target_F,target_right,cue_3,200ms,correct,0.4171138437995978
mGCP-III,27,2018-01-18_16:14,3,274,26_Caucasian_female_neutral_left.jpg,61_Caucasian_female_neutral_left.jpg,37_Caucasian_female_neutral_left.jpg,cue_left,target_F,target_left,cue_3,200ms,correct,0.5325201116138487
mGCP-III,27,2018-01-18_16:14,3,275,37_Caucasian_female_neutral_right.jpg,61_Caucasian_female_neutral_right.jpg,26_Caucasian_female_neutral_right.jpg,cue_right,target_E,target_right,cue_3,500ms,correct,0.4658447272486228
mGCP-III,27,2018-01-18_16:14,3,276,61_Caucasian_female_neutral_right.jpg,26_Caucasian_female_neutral_right.jpg,37_Caucasian_female_neutral_right.jpg,cue_right,target_E,target_left,cue_3,200ms,correct,0.5170471178462321
mGCP-III,27,2018-01-18_16:14,3,277,61_Caucasian_female_neutral_left.jpg,26_Caucasian_female_neutral_left.jpg,37_Caucasian_female_neutral_left.jpg,cue_left,target_E,target_left,cue_3,200ms,correct,0.5550090093856852
mGCP-III,27,2018-01-18_16:14,3,278,37_Caucasian_female_neutral_right.jpg,26_Caucasian_female_neutral_right.jpg,61_Caucasian_female_neutral_right.jpg,cue_right,target_E,target_left,cue_3,500ms,correct,0.43867276589298854
mGCP-III,27,2018-01-18_16:14,3,279,26_Caucasian_female_neutral_right.jpg,37_Caucasian_female_neutral_right.jpg,61_Caucasian_female_neutral_right.jpg,cue_right,target_F,target_left,cue_3,200ms,correct,0.539571571189299
mGCP-III,27,2018-01-18_16:14,3,280,61_Caucasian_female_neutral_right.jpg,37_Caucasian_female_neutral_right.jpg,26_Caucasian_female_neutral_right.jpg,cue_right,target_F,target_right,cue_3,200ms,correct,0.5662678780317947
mGCP-III,27,2018-01-18_16:14,3,281,61_Caucasian_female_neutral_left.jpg,37_Caucasian_female_neutral_left.jpg,26_Caucasian_female_neutral_left.jpg,cue_left,target_F,target_left,cue_3,200ms,correct,0.5035992112971144
mGCP-III,27,2018-01-18_16:14,3,282,26_Caucasian_female_neutral_right.jpg,61_Caucasian_female_neutral_right.jpg,37_Caucasian_female_neutral_right.jpg,cue_right,target_E,target_right,cue_3,200ms,correct,0.4375468395264761
mGCP-III,27,2018-01-18_16:15,3,283,37_Caucasian_female_neutral_left.jpg,61_Caucasian_female_neutral_left.jpg,26_Caucasian_female_neutral_left.jpg,cue_left,target_F,target_left,cue_3,200ms,correct,0.45150832652143436
mGCP-III,27,2018-01-18_16:15,3,284,61_Caucasian_female_neutral_right.jpg,26_Caucasian_female_neutral_right.jpg,37_Caucasian_female_neutral_right.jpg,cue_right,target_F,target_right,cue_3,200ms,correct,0.4532027469431341
mGCP-III,27,2018-01-18_16:15,3,285,26_Caucasian_female_neutral_right.jpg,61_Caucasian_female_neutral_right.jpg,37_Caucasian_female_neutral_right.jpg,cue_right,target_E,target_right,cue_3,500ms,correct,0.5972470507658727
mGCP-III,27,2018-01-18_16:15,3,286,26_Caucasian_female_neutral_right.jpg,37_Caucasian_female_neutral_right.jpg,61_Caucasian_female_neutral_right.jpg,cue_right,target_E,target_right,cue_3,500ms,correct,0.5260750720299256
mGCP-III,27,2018-01-18_16:15,3,287,26_Caucasian_female_neutral_left.jpg,37_Caucasian_female_neutral_left.jpg,61_Caucasian_female_neutral_left.jpg,cue_left,target_E,target_left,cue_3,500ms,correct,0.46474606014453457
mGCP-III,27,2018-01-18_16:15,3,288,37_Caucasian_female_neutral_left.jpg,26_Caucasian_female_neutral_left.jpg,61_Caucasian_female_neutral_left.jpg,cue_left,target_F,target_right,cue_3,200ms,correct,0.564887136744801
mGCP-III,27,2018-01-18_16:15,4,289,99,61_Caucasian_female_neutral_right.jpg,99,cue_right,target_E,target_left,cue_1,500ms,correct,0.6205703192354122
mGCP-III,27,2018-01-18_16:15,4,290,99,61_Caucasian_female_neutral_right.jpg,99,cue_right,target_F,target_left,cue_1,200ms,correct,0.5120476096999482
mGCP-III,27,2018-01-18_16:15,4,291,99,61_Caucasian_female_neutral_left.jpg,99,cue_left,target_E,target_left,cue_1,200ms,correct,0.4636687263882777
mGCP-III,27,2018-01-18_16:15,4,292,99,61_Caucasian_female_neutral_left.jpg,99,cue_left,target_F,target_right,cue_1,500ms,correct,0.32962975985356024
mGCP-III,27,2018-01-18_16:15,4,293,99,61_Caucasian_female_neutral_right.jpg,99,cue_right,target_E,target_left,cue_1,200ms,correct,0.5448405115421338
mGCP-III,27,2018-01-18_16:15,4,294,99,61_Caucasian_female_neutral_left.jpg,99,cue_left,target_E,target_right,cue_1,200ms,correct,0.4651750973534945
mGCP-III,27,2018-01-18_16:15,4,295,99,37_Caucasian_female_neutral_right.jpg,99,cue_right,target_F,target_left,cue_1,500ms,correct,0.3900580306399206
mGCP-III,27,2018-01-18_16:15,4,296,99,37_Caucasian_female_neutral_right.jpg,99,cue_right,target_E,target_right,cue_1,200ms,correct,0.5672575080498063
mGCP-III,27,2018-01-18_16:15,4,297,99,37_Caucasian_female_neutral_left.jpg,99,cue_left,target_F,target_left,cue_1,500ms,correct,0.35036616310753743
mGCP-III,27,2018-01-18_16:15,4,298,99,26_Caucasian_female_neutral_left.jpg,99,cue_left,target_E,target_left,cue_1,200ms,correct,0.5670252116651682
mGCP-III,27,2018-01-18_16:15,4,299,99,26_Caucasian_female_neutral_left.jpg,99,cue_left,target_F,target_right,cue_1,500ms,correct,0.47246754467778374
mGCP-III,27,2018-01-18_16:15,4,300,99,26_Caucasian_female_neutral_left.jpg,99,cue_left,target_F,target_right,cue_1,200ms,correct,0.49960592576826457
mGCP-III,27,2018-01-18_16:15,4,301,99,26_Caucasian_female_neutral_right.jpg,99,cue_right,target_E,target_right,cue_1,500ms,correct,0.47470636037905933
mGCP-III,27,2018-01-18_16:15,4,302,99,37_Caucasian_female_neutral_right.jpg,99,cue_right,target_E,target_left,cue_1,200ms,correct,0.45820344028106774
mGCP-III,27,2018-01-18_16:15,4,303,99,26_Caucasian_female_neutral_right.jpg,99,cue_right,target_E,target_left,cue_1,500ms,correct,0.5064116568537429
mGCP-III,27,2018-01-18_16:15,4,304,99,61_Caucasian_female_neutral_right.jpg,99,cue_right,target_F,target_right,cue_1,500ms,correct,0.39068341360325576
mGCP-III,27,2018-01-18_16:15,4,305,99,61_Caucasian_female_neutral_left.jpg,99,cue_left,target_F,target_right,cue_1,500ms,correct,0.3763079017517157
mGCP-III,27,2018-01-18_16:15,4,306,99,61_Caucasian_female_neutral_left.jpg,99,cue_left,target_F,target_left,cue_1,500ms,incorrect,0.4301315279517439
mGCP-III,27,2018-01-18_16:15,4,307,99,26_Caucasian_female_neutral_left.jpg,99,cue_left,target_F,target_left,cue_1,500ms,correct,0.43986585278980783
mGCP-III,27,2018-01-18_16:15,4,308,99,37_Caucasian_female_neutral_right.jpg,99,cue_right,target_E,target_right,cue_1,200ms,correct,0.5621548887538665
mGCP-III,27,2018-01-18_16:15,4,309,99,26_Caucasian_female_neutral_right.jpg,99,cue_right,target_F,target_right,cue_1,500ms,correct,0.4379395310388645
mGCP-III,27,2018-01-18_16:15,4,310,99,61_Caucasian_female_neutral_right.jpg,99,cue_right,target_E,target_right,cue_1,500ms,correct,0.41095008827687707
mGCP-III,27,2018-01-18_16:15,4,311,99,26_Caucasian_female_neutral_left.jpg,99,cue_left,target_F,target_right,cue_1,200ms,correct,0.4429481256083818
mGCP-III,27,2018-01-18_16:16,4,312,99,26_Caucasian_female_neutral_left.jpg,99,cue_left,target_E,target_left,cue_1,500ms,correct,0.510982917920046
mGCP-III,27,2018-01-18_16:16,4,313,99,61_Caucasian_female_neutral_left.jpg,99,cue_left,target_E,target_left,cue_1,500ms,incorrect,0.4089901862680563
mGCP-III,27,2018-01-18_16:16,4,314,99,61_Caucasian_female_neutral_left.jpg,99,cue_left,target_F,target_right,cue_1,200ms,correct,0.5831326748193533
mGCP-III,27,2018-01-18_16:16,4,315,99,61_Caucasian_female_neutral_left.jpg,99,cue_left,target_E,target_left,cue_1,200ms,correct,0.5085888428984617
mGCP-III,27,2018-01-18_16:16,4,316,99,37_Caucasian_female_neutral_right.jpg,99,cue_right,target_F,target_right,cue_1,200ms,correct,0.47622971900273114
mGCP-III,27,2018-01-18_16:16,4,317,99,61_Caucasian_female_neutral_left.jpg,99,cue_left,target_E,target_left,cue_1,500ms,correct,0.4152681146733812
mGCP-III,27,2018-01-18_16:16,4,318,99,37_Caucasian_female_neutral_right.jpg,99,cue_right,target_F,target_left,cue_1,500ms,correct,0.43281676358310506
mGCP-III,27,2018-01-18_16:16,4,319,99,37_Caucasian_female_neutral_left.jpg,99,cue_left,target_E,target_right,cue_1,200ms,correct,0.5348146310388984
mGCP-III,27,2018-01-18_16:16,4,320,99,37_Caucasian_female_neutral_right.jpg,99,cue_right,target_E,target_right,cue_1,500ms,correct,0.49485254117826116
mGCP-III,27,2018-01-18_16:16,4,321,99,61_Caucasian_female_neutral_left.jpg,99,cue_left,target_F,target_left,cue_1,200ms,correct,0.4070456916706462
mGCP-III,27,2018-01-18_16:16,4,322,99,26_Caucasian_female_neutral_right.jpg,99,cue_right,target_E,target_right,cue_1,200ms,correct,0.3820908176166995
mGCP-III,27,2018-01-18_16:16,4,323,99,61_Caucasian_female_neutral_right.jpg,99,cue_right,target_F,target_right,cue_1,200ms,correct,0.5244549232411373
mGCP-III,27,2018-01-18_16:16,4,324,99,37_Caucasian_female_neutral_left.jpg,99,cue_left,target_E,target_right,cue_1,500ms,correct,0.5500193777843378
mGCP-III,27,2018-01-18_16:16,4,325,99,37_Caucasian_female_neutral_left.jpg,99,cue_left,target_E,target_left,cue_1,200ms,incorrect,0.3986893426917959
mGCP-III,27,2018-01-18_16:16,4,326,99,61_Caucasian_female_neutral_left.jpg,99,cue_left,target_E,target_right,cue_1,200ms,correct,0.58140190870472
mGCP-III,27,2018-01-18_16:16,4,327,99,26_Caucasian_female_neutral_right.jpg,99,cue_right,target_E,target_left,cue_1,200ms,correct,0.4930996515940933
mGCP-III,27,2018-01-18_16:16,4,328,99,37_Caucasian_female_neutral_right.jpg,99,cue_right,target_F,target_left,cue_1,200ms,correct,0.5220956136690802
mGCP-III,27,2018-01-18_16:16,4,329,99,37_Caucasian_female_neutral_left.jpg,99,cue_left,target_F,target_right,cue_1,500ms,correct,0.7263315462041646
mGCP-III,27,2018-01-18_16:16,4,330,99,26_Caucasian_female_neutral_right.jpg,99,cue_right,target_F,target_right,cue_1,500ms,correct,0.3970767000791966
mGCP-III,27,2018-01-18_16:16,4,331,99,61_Caucasian_female_neutral_right.jpg,99,cue_right,target_E,target_left,cue_1,500ms,correct,0.39784153988875914
mGCP-III,27,2018-01-18_16:16,4,332,99,37_Caucasian_female_neutral_left.jpg,99,cue_left,target_F,target_right,cue_1,200ms,correct,0.4636252695818257
mGCP-III,27,2018-01-18_16:16,4,333,99,37_Caucasian_female_neutral_left.jpg,99,cue_left,target_F,target_right,cue_1,200ms,correct,0.4895294773450587
mGCP-III,27,2018-01-18_16:16,4,334,99,61_Caucasian_female_neutral_left.jpg,99,cue_left,target_E,target_right,cue_1,500ms,correct,0.38281180555713945
mGCP-III,27,2018-01-18_16:16,4,335,99,26_Caucasian_female_neutral_right.jpg,99,cue_right,target_E,target_left,cue_1,500ms,correct,0.429842342651682
mGCP-III,27,2018-01-18_16:16,4,336,99,26_Caucasian_female_neutral_left.jpg,99,cue_left,target_E,target_left,cue_1,200ms,correct,0.44240412539511453
mGCP-III,27,2018-01-18_16:16,4,337,99,26_Caucasian_female_neutral_left.jpg,99,cue_left,target_F,target_left,cue_1,200ms,correct,0.5024713096172491
mGCP-III,27,2018-01-18_16:16,4,338,99,37_Caucasian_female_neutral_right.jpg,99,cue_right,target_F,target_right,cue_1,500ms,incorrect,0.34384922226308845
mGCP-III,27,2018-01-18_16:16,4,339,99,26_Caucasian_female_neutral_right.jpg,99,cue_right,target_F,target_left,cue_1,500ms,correct,0.49146212008417933
mGCP-III,27,2018-01-18_16:16,4,340,99,61_Caucasian_female_neutral_right.jpg,99,cue_right,target_E,target_right,cue_1,500ms,incorrect,0.30107429178315215
mGCP-III,27,2018-01-18_16:16,4,341,99,61_Caucasian_female_neutral_right.jpg,99,cue_right,target_E,target_left,cue_1,200ms,correct,0.4521597835700959
mGCP-III,27,2018-01-18_16:16,4,342,99,37_Caucasian_female_neutral_right.jpg,99,cue_right,target_F,target_right,cue_1,500ms,incorrect,0.4714684331738681
mGCP-III,27,2018-01-18_16:16,4,343,99,26_Caucasian_female_neutral_right.jpg,99,cue_right,target_F,target_left,cue_1,500ms,correct,0.3684844912531844
mGCP-III,27,2018-01-18_16:16,4,344,99,37_Caucasian_female_neutral_right.jpg,99,cue_right,target_F,target_left,cue_1,200ms,correct,0.40164954139254405
mGCP-III,27,2018-01-18_16:17,4,345,99,61_Caucasian_female_neutral_right.jpg,99,cue_right,target_F,target_left,cue_1,500ms,correct,0.5451735487113183
mGCP-III,27,2018-01-18_16:17,4,346,99,26_Caucasian_female_neutral_left.jpg,99,cue_left,target_F,target_left,cue_1,200ms,correct,0.40983917425910477
mGCP-III,27,2018-01-18_16:17,4,347,99,37_Caucasian_female_neutral_right.jpg,99,cue_right,target_E,target_left,cue_1,500ms,incorrect,0.3329451191893895
mGCP-III,27,2018-01-18_16:17,4,348,99,26_Caucasian_female_neutral_right.jpg,99,cue_right,target_E,target_right,cue_1,500ms,correct,0.34954087883306784
mGCP-III,27,2018-01-18_16:17,4,349,99,37_Caucasian_female_neutral_left.jpg,99,cue_left,target_F,target_right,cue_1,500ms,correct,0.5696575090005354
mGCP-III,27,2018-01-18_16:17,4,350,99,61_Caucasian_female_neutral_right.jpg,99,cue_right,target_F,target_left,cue_1,500ms,correct,0.3570814250197145
mGCP-III,27,2018-01-18_16:17,4,351,99,61_Caucasian_female_neutral_right.jpg,99,cue_right,target_F,target_left,cue_1,200ms,correct,0.4440780026016
mGCP-III,27,2018-01-18_16:17,4,352,99,26_Caucasian_female_neutral_right.jpg,99,cue_right,target_F,target_left,cue_1,200ms,correct,0.3978976386752038
mGCP-III,27,2018-01-18_16:17,4,353,99,61_Caucasian_female_neutral_left.jpg,99,cue_left,target_F,target_right,cue_1,200ms,correct,0.4366267403929669
mGCP-III,27,2018-01-18_16:17,4,354,99,37_Caucasian_female_neutral_right.jpg,99,cue_right,target_E,target_right,cue_1,500ms,correct,0.38166415078012506
mGCP-III,27,2018-01-18_16:17,4,355,99,37_Caucasian_female_neutral_left.jpg,99,cue_left,target_E,target_left,cue_1,200ms,correct,0.4664732707060466
mGCP-III,27,2018-01-18_16:17,4,356,99,37_Caucasian_female_neutral_left.jpg,99,cue_left,target_F,target_left,cue_1,500ms,correct,0.5175160563012469
mGCP-III,27,2018-01-18_16:17,4,357,99,37_Caucasian_female_neutral_right.jpg,99,cue_right,target_E,target_left,cue_1,200ms,correct,0.5656306432138081
mGCP-III,27,2018-01-18_16:17,4,358,99,37_Caucasian_female_neutral_left.jpg,99,cue_left,target_E,target_right,cue_1,500ms,incorrect,0.27037363767885836
mGCP-III,27,2018-01-18_16:17,4,359,99,26_Caucasian_female_neutral_left.jpg,99,cue_left,target_E,target_left,cue_1,500ms,correct,0.3335029465670232
mGCP-III,27,2018-01-18_16:17,4,360,99,61_Caucasian_female_neutral_right.jpg,99,cue_right,target_E,target_right,cue_1,200ms,correct,0.46506724545542966
mGCP-III,27,2018-01-18_16:17,4,361,99,37_Caucasian_female_neutral_right.jpg,99,cue_right,target_F,target_right,cue_1,200ms,correct,0.46149233046526206
mGCP-III,27,2018-01-18_16:17,4,362,99,37_Caucasian_female_neutral_left.jpg,99,cue_left,target_F,target_left,cue_1,200ms,correct,0.5972936680664134
mGCP-III,27,2018-01-18_16:17,4,363,99,26_Caucasian_female_neutral_right.jpg,99,cue_right,target_F,target_right,cue_1,200ms,correct,0.46891198771845666
mGCP-III,27,2018-01-18_16:17,4,364,99,26_Caucasian_female_neutral_right.jpg,99,cue_right,target_F,target_right,cue_1,200ms,correct,0.469711988032941
mGCP-III,27,2018-01-18_16:17,4,365,99,37_Caucasian_female_neutral_left.jpg,99,cue_left,target_F,target_left,cue_1,200ms,correct,0.4895796502023586
mGCP-III,27,2018-01-18_16:17,4,366,99,26_Caucasian_female_neutral_right.jpg,99,cue_right,target_E,target_left,cue_1,200ms,correct,0.6166465645983408
mGCP-III,27,2018-01-18_16:17,4,367,99,26_Caucasian_female_neutral_right.jpg,99,cue_right,target_E,target_right,cue_1,200ms,incorrect,0.41449813906365307
mGCP-III,27,2018-01-18_16:17,4,368,99,37_Caucasian_female_neutral_right.jpg,99,cue_right,target_E,target_left,cue_1,500ms,correct,0.4347185914921283
mGCP-III,27,2018-01-18_16:17,4,369,99,61_Caucasian_female_neutral_right.jpg,99,cue_right,target_F,target_right,cue_1,200ms,correct,0.5204023784317542
mGCP-III,27,2018-01-18_16:17,4,370,99,26_Caucasian_female_neutral_left.jpg,99,cue_left,target_E,target_right,cue_1,200ms,correct,0.5305286046532274
mGCP-III,27,2018-01-18_16:17,4,371,99,61_Caucasian_female_neutral_left.jpg,99,cue_left,target_E,target_right,cue_1,500ms,correct,0.4213327096622379
mGCP-III,27,2018-01-18_16:17,4,372,99,26_Caucasian_female_neutral_left.jpg,99,cue_left,target_E,target_right,cue_1,500ms,correct,0.516452944772027
mGCP-III,27,2018-01-18_16:17,4,373,99,61_Caucasian_female_neutral_right.jpg,99,cue_right,target_E,target_right,cue_1,200ms,correct,0.48358419104260975
mGCP-III,27,2018-01-18_16:17,4,374,99,26_Caucasian_female_neutral_left.jpg,99,cue_left,target_F,target_right,cue_1,500ms,correct,0.6025843368261121
mGCP-III,27,2018-01-18_16:17,4,375,99,26_Caucasian_female_neutral_left.jpg,99,cue_left,target_F,target_left,cue_1,500ms,correct,0.49430538046362926
mGCP-III,27,2018-01-18_16:17,4,376,99,37_Caucasian_female_neutral_left.jpg,99,cue_left,target_E,target_left,cue_1,500ms,correct,0.5164430682270904
mGCP-III,27,2018-01-18_16:17,4,377,99,26_Caucasian_female_neutral_right.jpg,99,cue_right,target_F,target_left,cue_1,200ms,correct,0.624187505854934
mGCP-III,27,2018-01-18_16:18,4,378,99,61_Caucasian_female_neutral_left.jpg,99,cue_left,target_F,target_left,cue_1,200ms,correct,0.4487227451754734
mGCP-III,27,2018-01-18_16:18,4,379,99,37_Caucasian_female_neutral_left.jpg,99,cue_left,target_E,target_right,cue_1,200ms,correct,0.46119366368293413
mGCP-III,27,2018-01-18_16:18,4,380,99,61_Caucasian_female_neutral_right.jpg,99,cue_right,target_F,target_right,cue_1,500ms,correct,0.5162514632102102
mGCP-III,27,2018-01-18_16:18,4,381,99,37_Caucasian_female_neutral_left.jpg,99,cue_left,target_E,target_left,cue_1,500ms,correct,0.39949131831599516
mGCP-III,27,2018-01-18_16:18,4,382,99,26_Caucasian_female_neutral_left.jpg,99,cue_left,target_E,target_right,cue_1,200ms,correct,0.6752583408415376
mGCP-III,27,2018-01-18_16:18,4,383,99,26_Caucasian_female_neutral_left.jpg,99,cue_left,target_E,target_right,cue_1,500ms,incorrect,0.47244344590217224
mGCP-III,27,2018-01-18_16:18,4,384,99,61_Caucasian_female_neutral_left.jpg,99,cue_left,target_F,target_left,cue_1,500ms,correct,0.49705461612029467
