experiment,subject,date,block,trial,face_left,face_top,face_right,cue_dir,target_id,target_pos,cue_num,isi,correct_response,rt
mGCP-III,42,2018-01-25_15:03,1,1,99,37_Caucasian_female_neutral_left.jpg,99,cue_left,target_F,target_right,cue_1,500ms,99,99
mGCP-III,42,2018-01-25_15:03,1,2,99,61_Caucasian_female_neutral_right.jpg,99,cue_right,target_F,target_right,cue_1,200ms,correct,0.4810337014914694
mGCP-III,42,2018-01-25_15:03,1,3,99,37_Caucasian_female_neutral_left.jpg,99,cue_left,target_E,target_right,cue_1,200ms,incorrect,0.34305855637467175
mGCP-III,42,2018-01-25_15:03,1,4,99,26_Caucasian_female_neutral_right.jpg,99,cue_right,target_E,target_right,cue_1,500ms,incorrect,0.4369737043271016
mGCP-III,42,2018-01-25_15:03,1,5,99,37_Caucasian_female_neutral_right.jpg,99,cue_right,target_F,target_right,cue_1,200ms,incorrect,0.5653468855143728
mGCP-III,42,2018-01-25_15:03,1,6,99,61_Caucasian_female_neutral_left.jpg,99,cue_left,target_E,target_right,cue_1,500ms,correct,0.5041246370874433
mGCP-III,42,2018-01-25_15:03,1,7,99,37_Caucasian_female_neutral_left.jpg,99,cue_left,target_F,target_left,cue_1,200ms,correct,0.6529098434657499
mGCP-III,42,2018-01-25_15:03,1,8,99,37_Caucasian_female_neutral_left.jpg,99,cue_left,target_E,target_left,cue_1,500ms,correct,0.6664873088557215
mGCP-III,42,2018-01-25_15:03,1,9,99,37_Caucasian_female_neutral_right.jpg,99,cue_right,target_E,target_right,cue_1,500ms,correct,0.5861476509853674
mGCP-III,42,2018-01-25_15:03,1,10,99,37_Caucasian_female_neutral_left.jpg,99,cue_left,target_F,target_right,cue_1,200ms,correct,0.5817126932797692
mGCP-III,42,2018-01-25_15:03,1,11,99,26_Caucasian_female_neutral_right.jpg,99,cue_right,target_E,target_left,cue_1,200ms,correct,0.5753490464994684
mGCP-III,42,2018-01-25_15:03,1,12,99,26_Caucasian_female_neutral_left.jpg,99,cue_left,target_E,target_right,cue_1,500ms,incorrect,0.33031625048897695
mGCP-III,42,2018-01-25_15:03,1,13,99,37_Caucasian_female_neutral_right.jpg,99,cue_right,target_E,target_right,cue_1,500ms,incorrect,0.38578601190783957
mGCP-III,42,2018-01-25_15:03,1,14,99,61_Caucasian_female_neutral_left.jpg,99,cue_left,target_E,target_left,cue_1,200ms,correct,0.6209549183749914
mGCP-III,42,2018-01-25_15:04,1,15,99,26_Caucasian_female_neutral_right.jpg,99,cue_right,target_F,target_right,cue_1,500ms,correct,0.613630087549609
mGCP-III,42,2018-01-25_15:04,1,16,99,61_Caucasian_female_neutral_left.jpg,99,cue_left,target_E,target_left,cue_1,500ms,correct,0.45735293943289435
mGCP-III,42,2018-01-25_15:04,1,17,99,37_Caucasian_female_neutral_right.jpg,99,cue_right,target_F,target_left,cue_1,200ms,correct,0.6002596342605102
mGCP-III,42,2018-01-25_15:04,1,18,99,26_Caucasian_female_neutral_left.jpg,99,cue_left,target_E,target_right,cue_1,500ms,correct,0.3286822771169682
mGCP-III,42,2018-01-25_15:04,1,19,99,26_Caucasian_female_neutral_left.jpg,99,cue_left,target_F,target_left,cue_1,500ms,correct,0.507407596158373
mGCP-III,42,2018-01-25_15:04,1,20,99,26_Caucasian_female_neutral_left.jpg,99,cue_left,target_E,target_left,cue_1,500ms,correct,0.6799719348491635
mGCP-III,42,2018-01-25_15:04,1,21,99,26_Caucasian_female_neutral_right.jpg,99,cue_right,target_F,target_left,cue_1,200ms,correct,0.4697934185169288
mGCP-III,42,2018-01-25_15:04,1,22,99,26_Caucasian_female_neutral_left.jpg,99,cue_left,target_F,target_right,cue_1,200ms,correct,0.469618801438628
mGCP-III,42,2018-01-25_15:04,1,23,99,37_Caucasian_female_neutral_left.jpg,99,cue_left,target_E,target_left,cue_1,200ms,correct,0.4041484592798952
mGCP-III,42,2018-01-25_15:04,1,24,99,61_Caucasian_female_neutral_left.jpg,99,cue_left,target_E,target_right,cue_1,200ms,incorrect,0.5063199925098161
mGCP-III,42,2018-01-25_15:04,1,25,99,26_Caucasian_female_neutral_left.jpg,99,cue_left,target_E,target_right,cue_1,200ms,correct,0.450185342990153
mGCP-III,42,2018-01-25_15:04,1,26,99,37_Caucasian_female_neutral_right.jpg,99,cue_right,target_E,target_left,cue_1,500ms,incorrect,0.5506695695767121
mGCP-III,42,2018-01-25_15:04,1,27,99,61_Caucasian_female_neutral_left.jpg,99,cue_left,target_E,target_left,cue_1,500ms,correct,0.6194086486011656
mGCP-III,42,2018-01-25_15:04,1,28,99,37_Caucasian_female_neutral_left.jpg,99,cue_left,target_F,target_right,cue_1,500ms,correct,0.6029721248723945
mGCP-III,42,2018-01-25_15:04,1,29,99,61_Caucasian_female_neutral_right.jpg,99,cue_right,target_E,target_right,cue_1,500ms,correct,0.4562017309217481
mGCP-III,42,2018-01-25_15:04,1,30,99,61_Caucasian_female_neutral_right.jpg,99,cue_right,target_E,target_left,cue_1,500ms,incorrect,0.448705048447664
mGCP-III,42,2018-01-25_15:04,1,31,99,37_Caucasian_female_neutral_right.jpg,99,cue_right,target_E,target_left,cue_1,500ms,correct,0.4992977786096162
mGCP-III,42,2018-01-25_15:04,1,32,99,61_Caucasian_female_neutral_left.jpg,99,cue_left,target_E,target_right,cue_1,500ms,correct,0.5218190358700667
mGCP-III,42,2018-01-25_15:04,1,33,99,26_Caucasian_female_neutral_left.jpg,99,cue_left,target_F,target_right,cue_1,200ms,correct,0.566123575952588
mGCP-III,42,2018-01-25_15:04,1,34,99,61_Caucasian_female_neutral_right.jpg,99,cue_right,target_F,target_left,cue_1,200ms,incorrect,0.4170898760421551
mGCP-III,42,2018-01-25_15:04,1,35,99,61_Caucasian_female_neutral_right.jpg,99,cue_right,target_E,target_right,cue_1,200ms,incorrect,0.5843647395195148
mGCP-III,42,2018-01-25_15:04,1,36,99,61_Caucasian_female_neutral_right.jpg,99,cue_right,target_E,target_left,cue_1,200ms,99,99
mGCP-III,42,2018-01-25_15:04,1,37,99,37_Caucasian_female_neutral_left.jpg,99,cue_left,target_F,target_left,cue_1,500ms,correct,0.43772590096705244
mGCP-III,42,2018-01-25_15:04,1,38,99,37_Caucasian_female_neutral_left.jpg,99,cue_left,target_F,target_left,cue_1,200ms,correct,0.5229469357655034
mGCP-III,42,2018-01-25_15:04,1,39,99,37_Caucasian_female_neutral_right.jpg,99,cue_right,target_F,target_right,cue_1,200ms,correct,0.6681975290503033
mGCP-III,42,2018-01-25_15:04,1,40,99,61_Caucasian_female_neutral_left.jpg,99,cue_left,target_F,target_right,cue_1,200ms,correct,0.32753304391007987
mGCP-III,42,2018-01-25_15:04,1,41,99,26_Caucasian_female_neutral_right.jpg,99,cue_right,target_F,target_left,cue_1,500ms,correct,0.4729400814539986
mGCP-III,42,2018-01-25_15:04,1,42,99,26_Caucasian_female_neutral_right.jpg,99,cue_right,target_E,target_right,cue_1,500ms,incorrect,0.34829627856197476
mGCP-III,42,2018-01-25_15:04,1,43,99,37_Caucasian_female_neutral_left.jpg,99,cue_left,target_E,target_right,cue_1,500ms,incorrect,0.3504825475756661
mGCP-III,42,2018-01-25_15:04,1,44,99,37_Caucasian_female_neutral_left.jpg,99,cue_left,target_E,target_left,cue_1,200ms,correct,0.45232736514299177
mGCP-III,42,2018-01-25_15:04,1,45,99,26_Caucasian_female_neutral_left.jpg,99,cue_left,target_E,target_left,cue_1,200ms,correct,0.5476485361214145
mGCP-III,42,2018-01-25_15:05,1,46,99,26_Caucasian_female_neutral_left.jpg,99,cue_left,target_F,target_left,cue_1,200ms,incorrect,0.32378391255224415
mGCP-III,42,2018-01-25_15:05,1,47,99,37_Caucasian_female_neutral_right.jpg,99,cue_right,target_E,target_right,cue_1,200ms,correct,0.48454935164591006
mGCP-III,42,2018-01-25_15:05,1,48,99,26_Caucasian_female_neutral_right.jpg,99,cue_right,target_F,target_right,cue_1,500ms,incorrect,0.3296679549621331
mGCP-III,42,2018-01-25_15:05,1,49,99,37_Caucasian_female_neutral_right.jpg,99,cue_right,target_E,target_left,cue_1,200ms,incorrect,0.43977705902943853
mGCP-III,42,2018-01-25_15:05,1,50,99,37_Caucasian_female_neutral_right.jpg,99,cue_right,target_F,target_right,cue_1,500ms,incorrect,0.5228947876803431
mGCP-III,42,2018-01-25_15:05,1,51,99,61_Caucasian_female_neutral_right.jpg,99,cue_right,target_F,target_left,cue_1,200ms,correct,0.5471159935405012
mGCP-III,42,2018-01-25_15:05,1,52,99,61_Caucasian_female_neutral_right.jpg,99,cue_right,target_E,target_right,cue_1,500ms,correct,0.5140612179038726
mGCP-III,42,2018-01-25_15:05,1,53,99,37_Caucasian_female_neutral_right.jpg,99,cue_right,target_F,target_left,cue_1,200ms,correct,0.44537270671753504
mGCP-III,42,2018-01-25_15:05,1,54,99,26_Caucasian_female_neutral_left.jpg,99,cue_left,target_F,target_left,cue_1,500ms,incorrect,0.541833629431494
mGCP-III,42,2018-01-25_15:05,1,55,99,61_Caucasian_female_neutral_right.jpg,99,cue_right,target_E,target_left,cue_1,200ms,correct,0.6660357538348762
mGCP-III,42,2018-01-25_15:05,1,56,99,37_Caucasian_female_neutral_left.jpg,99,cue_left,target_F,target_right,cue_1,200ms,incorrect,0.48867892699854565
mGCP-III,42,2018-01-25_15:05,1,57,99,37_Caucasian_female_neutral_left.jpg,99,cue_left,target_E,target_right,cue_1,200ms,correct,0.6425153866493929
mGCP-III,42,2018-01-25_15:05,1,58,99,37_Caucasian_female_neutral_right.jpg,99,cue_right,target_E,target_left,cue_1,200ms,correct,0.5470634503944893
mGCP-III,42,2018-01-25_15:05,1,59,99,26_Caucasian_female_neutral_right.jpg,99,cue_right,target_F,target_left,cue_1,500ms,correct,0.5477188570239377
mGCP-III,42,2018-01-25_15:05,1,60,99,26_Caucasian_female_neutral_left.jpg,99,cue_left,target_F,target_right,cue_1,500ms,correct,0.40071340162467095
mGCP-III,42,2018-01-25_15:05,1,61,99,37_Caucasian_female_neutral_right.jpg,99,cue_right,target_F,target_left,cue_1,500ms,incorrect,0.40003350119332026
mGCP-III,42,2018-01-25_15:05,1,62,99,61_Caucasian_female_neutral_right.jpg,99,cue_right,target_F,target_left,cue_1,500ms,correct,0.6339054215441138
mGCP-III,42,2018-01-25_15:05,1,63,99,37_Caucasian_female_neutral_right.jpg,99,cue_right,target_E,target_right,cue_1,200ms,correct,0.496583312691655
mGCP-III,42,2018-01-25_15:05,1,64,99,26_Caucasian_female_neutral_left.jpg,99,cue_left,target_F,target_right,cue_1,500ms,incorrect,0.4549118559079943
mGCP-III,42,2018-01-25_15:05,1,65,99,61_Caucasian_female_neutral_right.jpg,99,cue_right,target_E,target_left,cue_1,500ms,incorrect,0.5237390335933014
mGCP-III,42,2018-01-25_15:05,1,66,99,26_Caucasian_female_neutral_right.jpg,99,cue_right,target_F,target_right,cue_1,200ms,incorrect,0.4867932996021409
mGCP-III,42,2018-01-25_15:05,1,67,99,61_Caucasian_female_neutral_left.jpg,99,cue_left,target_F,target_right,cue_1,500ms,correct,0.6430751884545316
mGCP-III,42,2018-01-25_15:05,1,68,99,61_Caucasian_female_neutral_left.jpg,99,cue_left,target_F,target_left,cue_1,200ms,correct,0.5404872606559366
mGCP-III,42,2018-01-25_15:05,1,69,99,26_Caucasian_female_neutral_right.jpg,99,cue_right,target_F,target_right,cue_1,200ms,correct,0.46778532213102153
mGCP-III,42,2018-01-25_15:05,1,70,99,26_Caucasian_female_neutral_right.jpg,99,cue_right,target_E,target_left,cue_1,200ms,correct,0.3728240519612882
mGCP-III,42,2018-01-25_15:05,1,71,99,61_Caucasian_female_neutral_left.jpg,99,cue_left,target_F,target_left,cue_1,200ms,correct,0.527722831340725
mGCP-III,42,2018-01-25_15:05,1,72,99,26_Caucasian_female_neutral_left.jpg,99,cue_left,target_F,target_left,cue_1,200ms,correct,0.4712049724003009
mGCP-III,42,2018-01-25_15:05,1,73,99,37_Caucasian_female_neutral_left.jpg,99,cue_left,target_E,target_right,cue_1,500ms,correct,0.5936901605637104
mGCP-III,42,2018-01-25_15:05,1,74,99,37_Caucasian_female_neutral_left.jpg,99,cue_left,target_F,target_left,cue_1,500ms,incorrect,0.2931528377448558
mGCP-III,42,2018-01-25_15:05,1,75,99,26_Caucasian_female_neutral_right.jpg,99,cue_right,target_E,target_right,cue_1,200ms,incorrect,0.43004393476257974
mGCP-III,42,2018-01-25_15:05,1,76,99,37_Caucasian_female_neutral_right.jpg,99,cue_right,target_F,target_right,cue_1,500ms,correct,0.5429943194139923
mGCP-III,42,2018-01-25_15:05,1,77,99,26_Caucasian_female_neutral_right.jpg,99,cue_right,target_F,target_left,cue_1,200ms,correct,0.4439050541368488
mGCP-III,42,2018-01-25_15:05,1,78,99,26_Caucasian_female_neutral_left.jpg,99,cue_left,target_E,target_right,cue_1,200ms,incorrect,0.32457364001129463
mGCP-III,42,2018-01-25_15:06,1,79,99,61_Caucasian_female_neutral_right.jpg,99,cue_right,target_F,target_right,cue_1,200ms,incorrect,0.5282735467371822
mGCP-III,42,2018-01-25_15:06,1,80,99,61_Caucasian_female_neutral_right.jpg,99,cue_right,target_E,target_right,cue_1,200ms,correct,0.7027254881268163
mGCP-III,42,2018-01-25_15:06,1,81,99,61_Caucasian_female_neutral_left.jpg,99,cue_left,target_F,target_right,cue_1,500ms,correct,0.4735046239929943
mGCP-III,42,2018-01-25_15:06,1,82,99,61_Caucasian_female_neutral_left.jpg,99,cue_left,target_F,target_left,cue_1,500ms,correct,0.5146071925646538
mGCP-III,42,2018-01-25_15:06,1,83,99,61_Caucasian_female_neutral_left.jpg,99,cue_left,target_F,target_right,cue_1,200ms,correct,0.5003209872738807
mGCP-III,42,2018-01-25_15:06,1,84,99,26_Caucasian_female_neutral_right.jpg,99,cue_right,target_E,target_right,cue_1,200ms,incorrect,0.4659230033503263
mGCP-III,42,2018-01-25_15:06,1,85,99,61_Caucasian_female_neutral_left.jpg,99,cue_left,target_E,target_right,cue_1,200ms,correct,0.5060047336228308
mGCP-III,42,2018-01-25_15:06,1,86,99,61_Caucasian_female_neutral_left.jpg,99,cue_left,target_F,target_left,cue_1,500ms,correct,0.561059285657393
mGCP-III,42,2018-01-25_15:06,1,87,99,37_Caucasian_female_neutral_left.jpg,99,cue_left,target_E,target_left,cue_1,500ms,incorrect,0.5204007659449417
mGCP-III,42,2018-01-25_15:06,1,88,99,61_Caucasian_female_neutral_right.jpg,99,cue_right,target_F,target_right,cue_1,500ms,correct,0.48451379613288736
mGCP-III,42,2018-01-25_15:06,1,89,99,26_Caucasian_female_neutral_right.jpg,99,cue_right,target_E,target_left,cue_1,500ms,correct,0.47305504428004497
mGCP-III,42,2018-01-25_15:06,1,90,99,61_Caucasian_female_neutral_right.jpg,99,cue_right,target_F,target_left,cue_1,500ms,correct,0.4313934640267689
mGCP-III,42,2018-01-25_15:06,1,91,99,61_Caucasian_female_neutral_left.jpg,99,cue_left,target_E,target_left,cue_1,200ms,correct,0.4225081412241707
mGCP-III,42,2018-01-25_15:06,1,92,99,61_Caucasian_female_neutral_right.jpg,99,cue_right,target_F,target_right,cue_1,500ms,correct,0.4369262969757983
mGCP-III,42,2018-01-25_15:06,1,93,99,37_Caucasian_female_neutral_right.jpg,99,cue_right,target_F,target_left,cue_1,500ms,correct,0.44484846042541903
mGCP-III,42,2018-01-25_15:06,1,94,99,26_Caucasian_female_neutral_left.jpg,99,cue_left,target_E,target_left,cue_1,200ms,incorrect,0.5881435004721425
mGCP-III,42,2018-01-25_15:06,1,95,99,26_Caucasian_female_neutral_left.jpg,99,cue_left,target_E,target_left,cue_1,500ms,correct,0.5345091936687822
mGCP-III,42,2018-01-25_15:06,1,96,99,26_Caucasian_female_neutral_right.jpg,99,cue_right,target_E,target_left,cue_1,500ms,correct,0.3827831512699049
mGCP-III,42,2018-01-25_15:06,2,97,37_Caucasian_female_neutral_left.jpg,61_Caucasian_female_neutral_left.jpg,26_Caucasian_female_neutral_left.jpg,cue_left,target_E,target_right,cue_3,500ms,correct,0.701691612810464
mGCP-III,42,2018-01-25_15:06,2,98,26_Caucasian_female_neutral_right.jpg,37_Caucasian_female_neutral_right.jpg,61_Caucasian_female_neutral_right.jpg,cue_right,target_E,target_right,cue_3,200ms,correct,0.429894996668736
mGCP-III,42,2018-01-25_15:06,2,99,61_Caucasian_female_neutral_right.jpg,37_Caucasian_female_neutral_right.jpg,26_Caucasian_female_neutral_right.jpg,cue_right,target_F,target_left,cue_3,200ms,correct,0.5412995066071744
mGCP-III,42,2018-01-25_15:06,2,100,26_Caucasian_female_neutral_right.jpg,37_Caucasian_female_neutral_right.jpg,61_Caucasian_female_neutral_right.jpg,cue_right,target_E,target_left,cue_3,200ms,incorrect,0.5529435421904054
mGCP-III,42,2018-01-25_15:07,2,101,37_Caucasian_female_neutral_left.jpg,26_Caucasian_female_neutral_left.jpg,61_Caucasian_female_neutral_left.jpg,cue_left,target_E,target_left,cue_3,200ms,correct,0.42226359830601723
mGCP-III,42,2018-01-25_15:07,2,102,26_Caucasian_female_neutral_left.jpg,37_Caucasian_female_neutral_left.jpg,61_Caucasian_female_neutral_left.jpg,cue_left,target_F,target_right,cue_3,200ms,incorrect,0.7017409954678442
mGCP-III,42,2018-01-25_15:07,2,103,26_Caucasian_female_neutral_left.jpg,61_Caucasian_female_neutral_left.jpg,37_Caucasian_female_neutral_left.jpg,cue_left,target_F,target_right,cue_3,200ms,99,99
mGCP-III,42,2018-01-25_15:07,2,104,26_Caucasian_female_neutral_right.jpg,61_Caucasian_female_neutral_right.jpg,37_Caucasian_female_neutral_right.jpg,cue_right,target_F,target_right,cue_3,200ms,correct,0.5274628810329887
mGCP-III,42,2018-01-25_15:07,2,105,37_Caucasian_female_neutral_right.jpg,61_Caucasian_female_neutral_right.jpg,26_Caucasian_female_neutral_right.jpg,cue_right,target_F,target_left,cue_3,500ms,correct,0.5952407760123606
mGCP-III,42,2018-01-25_15:07,2,106,37_Caucasian_female_neutral_left.jpg,26_Caucasian_female_neutral_left.jpg,61_Caucasian_female_neutral_left.jpg,cue_left,target_F,target_left,cue_3,200ms,correct,0.4786601734413125
mGCP-III,42,2018-01-25_15:07,2,107,61_Caucasian_female_neutral_right.jpg,37_Caucasian_female_neutral_right.jpg,26_Caucasian_female_neutral_right.jpg,cue_right,target_E,target_right,cue_3,500ms,correct,0.637395787778587
mGCP-III,42,2018-01-25_15:07,2,108,61_Caucasian_female_neutral_left.jpg,37_Caucasian_female_neutral_left.jpg,26_Caucasian_female_neutral_left.jpg,cue_left,target_F,target_right,cue_3,200ms,incorrect,0.46492270824091975
mGCP-III,42,2018-01-25_15:07,2,109,61_Caucasian_female_neutral_right.jpg,37_Caucasian_female_neutral_right.jpg,26_Caucasian_female_neutral_right.jpg,cue_right,target_E,target_left,cue_3,500ms,correct,0.3712860784762597
mGCP-III,42,2018-01-25_15:07,2,110,26_Caucasian_female_neutral_left.jpg,37_Caucasian_female_neutral_left.jpg,61_Caucasian_female_neutral_left.jpg,cue_left,target_F,target_left,cue_3,200ms,correct,0.4860308313709538
mGCP-III,42,2018-01-25_15:07,2,111,61_Caucasian_female_neutral_left.jpg,26_Caucasian_female_neutral_left.jpg,37_Caucasian_female_neutral_left.jpg,cue_left,target_F,target_left,cue_3,200ms,correct,0.5090692238190968
mGCP-III,42,2018-01-25_15:07,2,112,61_Caucasian_female_neutral_right.jpg,26_Caucasian_female_neutral_right.jpg,37_Caucasian_female_neutral_right.jpg,cue_right,target_E,target_left,cue_3,200ms,incorrect,0.46998857877952105
mGCP-III,42,2018-01-25_15:07,2,113,26_Caucasian_female_neutral_right.jpg,37_Caucasian_female_neutral_right.jpg,61_Caucasian_female_neutral_right.jpg,cue_right,target_F,target_right,cue_3,200ms,incorrect,0.5396058789847302
mGCP-III,42,2018-01-25_15:07,2,114,61_Caucasian_female_neutral_left.jpg,37_Caucasian_female_neutral_left.jpg,26_Caucasian_female_neutral_left.jpg,cue_left,target_E,target_left,cue_3,200ms,correct,0.5695345348722185
mGCP-III,42,2018-01-25_15:07,2,115,26_Caucasian_female_neutral_right.jpg,61_Caucasian_female_neutral_right.jpg,37_Caucasian_female_neutral_right.jpg,cue_right,target_F,target_left,cue_3,500ms,correct,0.46006780041352613
mGCP-III,42,2018-01-25_15:07,2,116,26_Caucasian_female_neutral_left.jpg,61_Caucasian_female_neutral_left.jpg,37_Caucasian_female_neutral_left.jpg,cue_left,target_E,target_left,cue_3,200ms,correct,0.605974195388626
mGCP-III,42,2018-01-25_15:07,2,117,61_Caucasian_female_neutral_right.jpg,37_Caucasian_female_neutral_right.jpg,26_Caucasian_female_neutral_right.jpg,cue_right,target_F,target_right,cue_3,200ms,correct,0.3786488351815933
mGCP-III,42,2018-01-25_15:07,2,118,37_Caucasian_female_neutral_left.jpg,61_Caucasian_female_neutral_left.jpg,26_Caucasian_female_neutral_left.jpg,cue_left,target_F,target_right,cue_3,500ms,correct,0.4021427332627354
mGCP-III,42,2018-01-25_15:07,2,119,61_Caucasian_female_neutral_right.jpg,26_Caucasian_female_neutral_right.jpg,37_Caucasian_female_neutral_right.jpg,cue_right,target_E,target_right,cue_3,200ms,correct,0.5364793641711003
mGCP-III,42,2018-01-25_15:07,2,120,61_Caucasian_female_neutral_right.jpg,26_Caucasian_female_neutral_right.jpg,37_Caucasian_female_neutral_right.jpg,cue_right,target_F,target_left,cue_3,200ms,incorrect,0.3227504322949244
mGCP-III,42,2018-01-25_15:07,2,121,61_Caucasian_female_neutral_right.jpg,26_Caucasian_female_neutral_right.jpg,37_Caucasian_female_neutral_right.jpg,cue_right,target_F,target_right,cue_3,500ms,correct,0.5320926039385085
mGCP-III,42,2018-01-25_15:07,2,122,26_Caucasian_female_neutral_left.jpg,37_Caucasian_female_neutral_left.jpg,61_Caucasian_female_neutral_left.jpg,cue_left,target_E,target_left,cue_3,200ms,correct,0.47072023223336146
mGCP-III,42,2018-01-25_15:07,2,123,37_Caucasian_female_neutral_right.jpg,26_Caucasian_female_neutral_right.jpg,61_Caucasian_female_neutral_right.jpg,cue_right,target_E,target_left,cue_3,500ms,correct,0.4594349122744461
mGCP-III,42,2018-01-25_15:07,2,124,61_Caucasian_female_neutral_left.jpg,26_Caucasian_female_neutral_left.jpg,37_Caucasian_female_neutral_left.jpg,cue_left,target_F,target_left,cue_3,500ms,correct,0.5070066089792817
mGCP-III,42,2018-01-25_15:07,2,125,61_Caucasian_female_neutral_left.jpg,37_Caucasian_female_neutral_left.jpg,26_Caucasian_female_neutral_left.jpg,cue_left,target_E,target_right,cue_3,200ms,correct,0.47571538680676895
mGCP-III,42,2018-01-25_15:07,2,126,37_Caucasian_female_neutral_right.jpg,26_Caucasian_female_neutral_right.jpg,61_Caucasian_female_neutral_right.jpg,cue_right,target_F,target_left,cue_3,200ms,correct,0.43826871513738297
mGCP-III,42,2018-01-25_15:07,2,127,61_Caucasian_female_neutral_right.jpg,37_Caucasian_female_neutral_right.jpg,26_Caucasian_female_neutral_right.jpg,cue_right,target_F,target_right,cue_3,500ms,incorrect,0.38202068303689884
mGCP-III,42,2018-01-25_15:07,2,128,61_Caucasian_female_neutral_right.jpg,37_Caucasian_female_neutral_right.jpg,26_Caucasian_female_neutral_right.jpg,cue_right,target_F,target_left,cue_3,500ms,correct,0.44146397061194875
mGCP-III,42,2018-01-25_15:07,2,129,26_Caucasian_female_neutral_left.jpg,37_Caucasian_female_neutral_left.jpg,61_Caucasian_female_neutral_left.jpg,cue_left,target_E,target_left,cue_3,500ms,correct,0.5891595980338025
mGCP-III,42,2018-01-25_15:07,2,130,37_Caucasian_female_neutral_right.jpg,26_Caucasian_female_neutral_right.jpg,61_Caucasian_female_neutral_right.jpg,cue_right,target_F,target_right,cue_3,200ms,correct,0.6795298612978513
mGCP-III,42,2018-01-25_15:07,2,131,61_Caucasian_female_neutral_left.jpg,37_Caucasian_female_neutral_left.jpg,26_Caucasian_female_neutral_left.jpg,cue_left,target_E,target_left,cue_3,500ms,correct,0.4397778491511417
mGCP-III,42,2018-01-25_15:08,2,132,61_Caucasian_female_neutral_left.jpg,26_Caucasian_female_neutral_left.jpg,37_Caucasian_female_neutral_left.jpg,cue_left,target_F,target_right,cue_3,200ms,correct,0.4561002001773886
mGCP-III,42,2018-01-25_15:08,2,133,37_Caucasian_female_neutral_left.jpg,61_Caucasian_female_neutral_left.jpg,26_Caucasian_female_neutral_left.jpg,cue_left,target_F,target_right,cue_3,200ms,correct,0.46394848717136483
mGCP-III,42,2018-01-25_15:08,2,134,26_Caucasian_female_neutral_left.jpg,61_Caucasian_female_neutral_left.jpg,37_Caucasian_female_neutral_left.jpg,cue_left,target_E,target_right,cue_3,200ms,correct,0.5015685907328589
mGCP-III,42,2018-01-25_15:08,2,135,61_Caucasian_female_neutral_right.jpg,26_Caucasian_female_neutral_right.jpg,37_Caucasian_female_neutral_right.jpg,cue_right,target_E,target_right,cue_3,500ms,correct,0.4909856896956626
mGCP-III,42,2018-01-25_15:08,2,136,61_Caucasian_female_neutral_left.jpg,37_Caucasian_female_neutral_left.jpg,26_Caucasian_female_neutral_left.jpg,cue_left,target_F,target_left,cue_3,500ms,correct,0.3940645206148474
mGCP-III,42,2018-01-25_15:08,2,137,26_Caucasian_female_neutral_left.jpg,37_Caucasian_female_neutral_left.jpg,61_Caucasian_female_neutral_left.jpg,cue_left,target_F,target_left,cue_3,500ms,incorrect,0.45586118811479537
mGCP-III,42,2018-01-25_15:08,2,138,61_Caucasian_female_neutral_right.jpg,37_Caucasian_female_neutral_right.jpg,26_Caucasian_female_neutral_right.jpg,cue_right,target_E,target_left,cue_3,200ms,correct,0.4515317117638915
mGCP-III,42,2018-01-25_15:08,2,139,26_Caucasian_female_neutral_right.jpg,37_Caucasian_female_neutral_right.jpg,61_Caucasian_female_neutral_right.jpg,cue_right,target_F,target_right,cue_3,500ms,correct,0.41432958301629697
mGCP-III,42,2018-01-25_15:08,2,140,26_Caucasian_female_neutral_left.jpg,37_Caucasian_female_neutral_left.jpg,61_Caucasian_female_neutral_left.jpg,cue_left,target_E,target_right,cue_3,500ms,correct,0.619398772070781
mGCP-III,42,2018-01-25_15:08,2,141,37_Caucasian_female_neutral_left.jpg,26_Caucasian_female_neutral_left.jpg,61_Caucasian_female_neutral_left.jpg,cue_left,target_F,target_right,cue_3,200ms,correct,0.5706008052129619
mGCP-III,42,2018-01-25_15:08,2,142,61_Caucasian_female_neutral_right.jpg,26_Caucasian_female_neutral_right.jpg,37_Caucasian_female_neutral_right.jpg,cue_right,target_E,target_left,cue_3,500ms,correct,0.5131719350047206
mGCP-III,42,2018-01-25_15:08,2,143,26_Caucasian_female_neutral_right.jpg,37_Caucasian_female_neutral_right.jpg,61_Caucasian_female_neutral_right.jpg,cue_right,target_E,target_right,cue_3,500ms,incorrect,0.46662976794505084
mGCP-III,42,2018-01-25_15:08,2,144,26_Caucasian_female_neutral_right.jpg,37_Caucasian_female_neutral_right.jpg,61_Caucasian_female_neutral_right.jpg,cue_right,target_F,target_left,cue_3,500ms,correct,0.49995753091570805
mGCP-III,42,2018-01-25_15:08,2,145,37_Caucasian_female_neutral_right.jpg,61_Caucasian_female_neutral_right.jpg,26_Caucasian_female_neutral_right.jpg,cue_right,target_E,target_left,cue_3,500ms,correct,0.4996699263174378
mGCP-III,42,2018-01-25_15:08,2,146,37_Caucasian_female_neutral_right.jpg,26_Caucasian_female_neutral_right.jpg,61_Caucasian_female_neutral_right.jpg,cue_right,target_F,target_right,cue_3,500ms,correct,0.5161823018097493
mGCP-III,42,2018-01-25_15:08,2,147,37_Caucasian_female_neutral_left.jpg,26_Caucasian_female_neutral_left.jpg,61_Caucasian_female_neutral_left.jpg,cue_left,target_E,target_left,cue_3,500ms,correct,0.46733416217102786
mGCP-III,42,2018-01-25_15:08,2,148,26_Caucasian_female_neutral_right.jpg,61_Caucasian_female_neutral_right.jpg,37_Caucasian_female_neutral_right.jpg,cue_right,target_E,target_left,cue_3,200ms,correct,0.5113708507215051
mGCP-III,42,2018-01-25_15:08,2,149,61_Caucasian_female_neutral_left.jpg,26_Caucasian_female_neutral_left.jpg,37_Caucasian_female_neutral_left.jpg,cue_left,target_E,target_right,cue_3,200ms,correct,0.5020643926145567
mGCP-III,42,2018-01-25_15:08,2,150,26_Caucasian_female_neutral_right.jpg,61_Caucasian_female_neutral_right.jpg,37_Caucasian_female_neutral_right.jpg,cue_right,target_E,target_left,cue_3,500ms,correct,0.36784153934786445
mGCP-III,42,2018-01-25_15:08,2,151,61_Caucasian_female_neutral_right.jpg,26_Caucasian_female_neutral_right.jpg,37_Caucasian_female_neutral_right.jpg,cue_right,target_F,target_right,cue_3,200ms,correct,0.5210462960440054
mGCP-III,42,2018-01-25_15:08,2,152,61_Caucasian_female_neutral_right.jpg,37_Caucasian_female_neutral_right.jpg,26_Caucasian_female_neutral_right.jpg,cue_right,target_E,target_right,cue_3,200ms,correct,0.569996361486119
mGCP-III,42,2018-01-25_15:08,2,153,26_Caucasian_female_neutral_left.jpg,61_Caucasian_female_neutral_left.jpg,37_Caucasian_female_neutral_left.jpg,cue_left,target_E,target_right,cue_3,500ms,correct,0.39746915855357656
mGCP-III,42,2018-01-25_15:08,2,154,61_Caucasian_female_neutral_left.jpg,26_Caucasian_female_neutral_left.jpg,37_Caucasian_female_neutral_left.jpg,cue_left,target_F,target_right,cue_3,500ms,correct,0.4914498866764916
mGCP-III,42,2018-01-25_15:08,2,155,26_Caucasian_female_neutral_left.jpg,61_Caucasian_female_neutral_left.jpg,37_Caucasian_female_neutral_left.jpg,cue_left,target_F,target_right,cue_3,500ms,incorrect,0.5076825587966596
mGCP-III,42,2018-01-25_15:08,2,156,61_Caucasian_female_neutral_right.jpg,26_Caucasian_female_neutral_right.jpg,37_Caucasian_female_neutral_right.jpg,cue_right,target_F,target_left,cue_3,500ms,incorrect,0.6074414529102796
mGCP-III,42,2018-01-25_15:08,2,157,37_Caucasian_female_neutral_right.jpg,26_Caucasian_female_neutral_right.jpg,61_Caucasian_female_neutral_right.jpg,cue_right,target_E,target_right,cue_3,500ms,correct,0.4248694223770144
mGCP-III,42,2018-01-25_15:08,2,158,26_Caucasian_female_neutral_left.jpg,61_Caucasian_female_neutral_left.jpg,37_Caucasian_female_neutral_left.jpg,cue_left,target_F,target_left,cue_3,200ms,correct,0.4803293072636734
mGCP-III,42,2018-01-25_15:08,2,159,61_Caucasian_female_neutral_left.jpg,37_Caucasian_female_neutral_left.jpg,26_Caucasian_female_neutral_left.jpg,cue_left,target_E,target_right,cue_3,500ms,correct,0.595295689525301
mGCP-III,42,2018-01-25_15:08,2,160,37_Caucasian_female_neutral_right.jpg,26_Caucasian_female_neutral_right.jpg,61_Caucasian_female_neutral_right.jpg,cue_right,target_F,target_left,cue_3,500ms,correct,0.7318727128422324
mGCP-III,42,2018-01-25_15:08,2,161,26_Caucasian_female_neutral_left.jpg,61_Caucasian_female_neutral_left.jpg,37_Caucasian_female_neutral_left.jpg,cue_left,target_E,target_left,cue_3,500ms,correct,0.5123020101109432
mGCP-III,42,2018-01-25_15:08,2,162,61_Caucasian_female_neutral_left.jpg,37_Caucasian_female_neutral_left.jpg,26_Caucasian_female_neutral_left.jpg,cue_left,target_F,target_left,cue_3,200ms,correct,0.6439846194753045
mGCP-III,42,2018-01-25_15:09,2,163,26_Caucasian_female_neutral_right.jpg,61_Caucasian_female_neutral_right.jpg,37_Caucasian_female_neutral_right.jpg,cue_right,target_E,target_right,cue_3,200ms,correct,0.7990414233590855
mGCP-III,42,2018-01-25_15:09,2,164,37_Caucasian_female_neutral_right.jpg,26_Caucasian_female_neutral_right.jpg,61_Caucasian_female_neutral_right.jpg,cue_right,target_E,target_right,cue_3,200ms,correct,0.4988470137122931
mGCP-III,42,2018-01-25_15:09,2,165,37_Caucasian_female_neutral_left.jpg,26_Caucasian_female_neutral_left.jpg,61_Caucasian_female_neutral_left.jpg,cue_left,target_F,target_right,cue_3,500ms,correct,0.5861962435192254
mGCP-III,42,2018-01-25_15:09,2,166,37_Caucasian_female_neutral_left.jpg,26_Caucasian_female_neutral_left.jpg,61_Caucasian_female_neutral_left.jpg,cue_left,target_F,target_left,cue_3,500ms,correct,0.5754845525116252
mGCP-III,42,2018-01-25_15:09,2,167,37_Caucasian_female_neutral_right.jpg,61_Caucasian_female_neutral_right.jpg,26_Caucasian_female_neutral_right.jpg,cue_right,target_E,target_right,cue_3,200ms,correct,0.5261686603425915
mGCP-III,42,2018-01-25_15:09,2,168,37_Caucasian_female_neutral_left.jpg,26_Caucasian_female_neutral_left.jpg,61_Caucasian_female_neutral_left.jpg,cue_left,target_E,target_right,cue_3,500ms,correct,0.4436774988516845
mGCP-III,42,2018-01-25_15:09,2,169,61_Caucasian_female_neutral_left.jpg,37_Caucasian_female_neutral_left.jpg,26_Caucasian_female_neutral_left.jpg,cue_left,target_F,target_right,cue_3,500ms,correct,0.7825811959519342
mGCP-III,42,2018-01-25_15:09,2,170,37_Caucasian_female_neutral_left.jpg,26_Caucasian_female_neutral_left.jpg,61_Caucasian_female_neutral_left.jpg,cue_left,target_E,target_right,cue_3,200ms,correct,0.5326456897037133
mGCP-III,42,2018-01-25_15:09,2,171,61_Caucasian_female_neutral_left.jpg,26_Caucasian_female_neutral_left.jpg,37_Caucasian_female_neutral_left.jpg,cue_left,target_E,target_left,cue_3,500ms,correct,0.44461853477332625
mGCP-III,42,2018-01-25_15:09,2,172,26_Caucasian_female_neutral_right.jpg,37_Caucasian_female_neutral_right.jpg,61_Caucasian_female_neutral_right.jpg,cue_right,target_F,target_left,cue_3,200ms,correct,0.4483526538042497
mGCP-III,42,2018-01-25_15:09,2,173,26_Caucasian_female_neutral_right.jpg,61_Caucasian_female_neutral_right.jpg,37_Caucasian_female_neutral_right.jpg,cue_right,target_E,target_right,cue_3,500ms,correct,0.37935638989984
mGCP-III,42,2018-01-25_15:09,2,174,61_Caucasian_female_neutral_left.jpg,26_Caucasian_female_neutral_left.jpg,37_Caucasian_female_neutral_left.jpg,cue_left,target_E,target_right,cue_3,500ms,correct,0.5544929724528629
mGCP-III,42,2018-01-25_15:09,2,175,37_Caucasian_female_neutral_left.jpg,61_Caucasian_female_neutral_left.jpg,26_Caucasian_female_neutral_left.jpg,cue_left,target_E,target_left,cue_3,500ms,correct,0.38668991207123327
mGCP-III,42,2018-01-25_15:09,2,176,37_Caucasian_female_neutral_left.jpg,61_Caucasian_female_neutral_left.jpg,26_Caucasian_female_neutral_left.jpg,cue_left,target_E,target_right,cue_3,200ms,correct,0.5562671925708855
mGCP-III,42,2018-01-25_15:09,2,177,26_Caucasian_female_neutral_left.jpg,37_Caucasian_female_neutral_left.jpg,61_Caucasian_female_neutral_left.jpg,cue_left,target_E,target_right,cue_3,200ms,correct,0.45304598157417786
mGCP-III,42,2018-01-25_15:09,2,178,37_Caucasian_female_neutral_left.jpg,61_Caucasian_female_neutral_left.jpg,26_Caucasian_female_neutral_left.jpg,cue_left,target_E,target_left,cue_3,200ms,correct,0.3845506553479936
mGCP-III,42,2018-01-25_15:09,2,179,37_Caucasian_female_neutral_right.jpg,26_Caucasian_female_neutral_right.jpg,61_Caucasian_female_neutral_right.jpg,cue_right,target_E,target_left,cue_3,200ms,correct,0.34303643294333597
mGCP-III,42,2018-01-25_15:09,2,180,37_Caucasian_female_neutral_left.jpg,61_Caucasian_female_neutral_left.jpg,26_Caucasian_female_neutral_left.jpg,cue_left,target_F,target_left,cue_3,200ms,correct,0.4644920914670365
mGCP-III,42,2018-01-25_15:09,2,181,37_Caucasian_female_neutral_left.jpg,61_Caucasian_female_neutral_left.jpg,26_Caucasian_female_neutral_left.jpg,cue_left,target_F,target_left,cue_3,500ms,correct,0.5093303593130258
mGCP-III,42,2018-01-25_15:09,2,182,26_Caucasian_female_neutral_left.jpg,61_Caucasian_female_neutral_left.jpg,37_Caucasian_female_neutral_left.jpg,cue_left,target_F,target_left,cue_3,500ms,correct,0.407272208665745
mGCP-III,42,2018-01-25_15:09,2,183,61_Caucasian_female_neutral_left.jpg,26_Caucasian_female_neutral_left.jpg,37_Caucasian_female_neutral_left.jpg,cue_left,target_E,target_left,cue_3,200ms,incorrect,0.35446278977178736
mGCP-III,42,2018-01-25_15:09,2,184,26_Caucasian_female_neutral_left.jpg,37_Caucasian_female_neutral_left.jpg,61_Caucasian_female_neutral_left.jpg,cue_left,target_F,target_right,cue_3,500ms,correct,0.6540507803838409
mGCP-III,42,2018-01-25_15:09,2,185,26_Caucasian_female_neutral_right.jpg,37_Caucasian_female_neutral_right.jpg,61_Caucasian_female_neutral_right.jpg,cue_right,target_E,target_left,cue_3,500ms,correct,0.5701567563573917
mGCP-III,42,2018-01-25_15:09,2,186,37_Caucasian_female_neutral_right.jpg,61_Caucasian_female_neutral_right.jpg,26_Caucasian_female_neutral_right.jpg,cue_right,target_F,target_left,cue_3,200ms,correct,0.5251972047044546
mGCP-III,42,2018-01-25_15:09,2,187,37_Caucasian_female_neutral_right.jpg,61_Caucasian_female_neutral_right.jpg,26_Caucasian_female_neutral_right.jpg,cue_right,target_F,target_right,cue_3,500ms,incorrect,0.39263795440274407
mGCP-III,42,2018-01-25_15:09,2,188,37_Caucasian_female_neutral_right.jpg,61_Caucasian_female_neutral_right.jpg,26_Caucasian_female_neutral_right.jpg,cue_right,target_F,target_right,cue_3,200ms,correct,0.6697129840431444
mGCP-III,42,2018-01-25_15:09,2,189,26_Caucasian_female_neutral_right.jpg,61_Caucasian_female_neutral_right.jpg,37_Caucasian_female_neutral_right.jpg,cue_right,target_F,target_right,cue_3,500ms,correct,0.537224054647595
mGCP-III,42,2018-01-25_15:09,2,190,26_Caucasian_female_neutral_right.jpg,61_Caucasian_female_neutral_right.jpg,37_Caucasian_female_neutral_right.jpg,cue_right,target_F,target_left,cue_3,200ms,correct,0.6761220628668525
mGCP-III,42,2018-01-25_15:09,2,191,37_Caucasian_female_neutral_right.jpg,61_Caucasian_female_neutral_right.jpg,26_Caucasian_female_neutral_right.jpg,cue_right,target_E,target_right,cue_3,500ms,incorrect,0.459852492027494
mGCP-III,42,2018-01-25_15:09,2,192,37_Caucasian_female_neutral_right.jpg,61_Caucasian_female_neutral_right.jpg,26_Caucasian_female_neutral_right.jpg,cue_right,target_E,target_left,cue_3,200ms,incorrect,0.563042888245036
mGCP-III,42,2018-01-25_15:10,3,193,99,26_Caucasian_female_neutral_right.jpg,99,cue_right,target_F,target_right,cue_1,500ms,correct,0.4722479341253347
mGCP-III,42,2018-01-25_15:10,3,194,99,26_Caucasian_female_neutral_right.jpg,99,cue_right,target_E,target_right,cue_1,200ms,correct,0.5259395248140208
mGCP-III,42,2018-01-25_15:10,3,195,99,37_Caucasian_female_neutral_left.jpg,99,cue_left,target_F,target_left,cue_1,500ms,correct,0.5382128929813916
mGCP-III,42,2018-01-25_15:10,3,196,99,37_Caucasian_female_neutral_left.jpg,99,cue_left,target_E,target_left,cue_1,500ms,correct,0.5250577480801439
mGCP-III,42,2018-01-25_15:10,3,197,99,26_Caucasian_female_neutral_left.jpg,99,cue_left,target_F,target_left,cue_1,200ms,correct,0.5622740990329476
mGCP-III,42,2018-01-25_15:10,3,198,99,37_Caucasian_female_neutral_left.jpg,99,cue_left,target_E,target_right,cue_1,200ms,correct,0.4530890432524757
mGCP-III,42,2018-01-25_15:10,3,199,99,61_Caucasian_female_neutral_left.jpg,99,cue_left,target_E,target_left,cue_1,500ms,correct,0.44653537200792925
mGCP-III,42,2018-01-25_15:10,3,200,99,61_Caucasian_female_neutral_left.jpg,99,cue_left,target_F,target_left,cue_1,500ms,correct,0.4184117510176293
mGCP-III,42,2018-01-25_15:10,3,201,99,26_Caucasian_female_neutral_left.jpg,99,cue_left,target_E,target_right,cue_1,200ms,correct,0.44543196590893785
mGCP-III,42,2018-01-25_15:10,3,202,99,37_Caucasian_female_neutral_right.jpg,99,cue_right,target_F,target_right,cue_1,200ms,correct,0.569548362016576
mGCP-III,42,2018-01-25_15:10,3,203,99,37_Caucasian_female_neutral_right.jpg,99,cue_right,target_F,target_left,cue_1,200ms,correct,0.7257729669854598
mGCP-III,42,2018-01-25_15:10,3,204,99,61_Caucasian_female_neutral_right.jpg,99,cue_right,target_E,target_right,cue_1,500ms,incorrect,0.5478338198518031
mGCP-III,42,2018-01-25_15:10,3,205,99,61_Caucasian_female_neutral_right.jpg,99,cue_right,target_F,target_left,cue_1,200ms,correct,0.5482474489908782
mGCP-III,42,2018-01-25_15:10,3,206,99,37_Caucasian_female_neutral_left.jpg,99,cue_left,target_F,target_right,cue_1,500ms,correct,0.49092366507829865
mGCP-III,42,2018-01-25_15:10,3,207,99,26_Caucasian_female_neutral_right.jpg,99,cue_right,target_E,target_left,cue_1,500ms,correct,0.4314705009728641
mGCP-III,42,2018-01-25_15:10,3,208,99,26_Caucasian_female_neutral_right.jpg,99,cue_right,target_F,target_left,cue_1,200ms,correct,0.6629163501238509
mGCP-III,42,2018-01-25_15:10,3,209,99,26_Caucasian_female_neutral_left.jpg,99,cue_left,target_F,target_left,cue_1,500ms,correct,0.4995304696913081
mGCP-III,42,2018-01-25_15:10,3,210,99,61_Caucasian_female_neutral_left.jpg,99,cue_left,target_F,target_right,cue_1,500ms,correct,0.5546948487553891
mGCP-III,42,2018-01-25_15:10,3,211,99,61_Caucasian_female_neutral_right.jpg,99,cue_right,target_F,target_right,cue_1,500ms,correct,0.638361317496674
mGCP-III,42,2018-01-25_15:10,3,212,99,37_Caucasian_female_neutral_left.jpg,99,cue_left,target_F,target_left,cue_1,200ms,correct,0.5236833299550199
mGCP-III,42,2018-01-25_15:11,3,213,99,61_Caucasian_female_neutral_right.jpg,99,cue_right,target_E,target_left,cue_1,200ms,correct,0.5702219414652063
mGCP-III,42,2018-01-25_15:11,3,214,99,26_Caucasian_female_neutral_right.jpg,99,cue_right,target_F,target_right,cue_1,200ms,correct,0.6094009567605099
mGCP-III,42,2018-01-25_15:11,3,215,99,61_Caucasian_female_neutral_right.jpg,99,cue_right,target_E,target_right,cue_1,200ms,incorrect,0.5122522323927114
mGCP-III,42,2018-01-25_15:11,3,216,99,26_Caucasian_female_neutral_left.jpg,99,cue_left,target_F,target_right,cue_1,500ms,correct,0.681246797534186
mGCP-III,42,2018-01-25_15:11,3,217,99,26_Caucasian_female_neutral_left.jpg,99,cue_left,target_F,target_left,cue_1,200ms,correct,0.5084268542104837
mGCP-III,42,2018-01-25_15:11,3,218,99,37_Caucasian_female_neutral_right.jpg,99,cue_right,target_F,target_right,cue_1,200ms,correct,0.7609962338810874
mGCP-III,42,2018-01-25_15:11,3,219,99,61_Caucasian_female_neutral_left.jpg,99,cue_left,target_E,target_left,cue_1,500ms,correct,0.644714297623068
mGCP-III,42,2018-01-25_15:11,3,220,99,37_Caucasian_female_neutral_right.jpg,99,cue_right,target_E,target_left,cue_1,200ms,correct,0.5836919501907687
mGCP-III,42,2018-01-25_15:11,3,221,99,37_Caucasian_female_neutral_left.jpg,99,cue_left,target_E,target_right,cue_1,500ms,correct,0.6486637250400236
mGCP-III,42,2018-01-25_15:11,3,222,99,61_Caucasian_female_neutral_left.jpg,99,cue_left,target_F,target_left,cue_1,200ms,incorrect,0.3616568553206889
mGCP-III,42,2018-01-25_15:11,3,223,99,61_Caucasian_female_neutral_right.jpg,99,cue_right,target_F,target_right,cue_1,200ms,correct,0.6257529373797297
mGCP-III,42,2018-01-25_15:11,3,224,99,37_Caucasian_female_neutral_right.jpg,99,cue_right,target_E,target_right,cue_1,200ms,correct,0.5223322204456053
mGCP-III,42,2018-01-25_15:11,3,225,99,61_Caucasian_female_neutral_right.jpg,99,cue_right,target_F,target_left,cue_1,500ms,correct,0.6404709446269408
mGCP-III,42,2018-01-25_15:11,3,226,99,37_Caucasian_female_neutral_right.jpg,99,cue_right,target_F,target_left,cue_1,200ms,correct,0.5529901594181865
mGCP-III,42,2018-01-25_15:11,3,227,99,26_Caucasian_female_neutral_right.jpg,99,cue_right,target_F,target_left,cue_1,500ms,correct,0.5721237663710781
mGCP-III,42,2018-01-25_15:11,3,228,99,37_Caucasian_female_neutral_right.jpg,99,cue_right,target_F,target_right,cue_1,500ms,correct,0.36953990770598466
mGCP-III,42,2018-01-25_15:11,3,229,99,61_Caucasian_female_neutral_left.jpg,99,cue_left,target_E,target_right,cue_1,200ms,correct,0.7867577835950215
mGCP-III,42,2018-01-25_15:11,3,230,99,26_Caucasian_female_neutral_left.jpg,99,cue_left,target_E,target_left,cue_1,200ms,correct,0.483715377324188
mGCP-III,42,2018-01-25_15:11,3,231,99,61_Caucasian_female_neutral_left.jpg,99,cue_left,target_E,target_right,cue_1,500ms,correct,0.44957260297633184
mGCP-III,42,2018-01-25_15:11,3,232,99,26_Caucasian_female_neutral_left.jpg,99,cue_left,target_E,target_right,cue_1,500ms,correct,0.4403621447563637
mGCP-III,42,2018-01-25_15:11,3,233,99,26_Caucasian_female_neutral_right.jpg,99,cue_right,target_E,target_right,cue_1,500ms,correct,0.6812179580629163
mGCP-III,42,2018-01-25_15:11,3,234,99,61_Caucasian_female_neutral_right.jpg,99,cue_right,target_E,target_left,cue_1,200ms,correct,0.4262869021767983
mGCP-III,42,2018-01-25_15:11,3,235,99,26_Caucasian_female_neutral_right.jpg,99,cue_right,target_E,target_left,cue_1,200ms,correct,0.4382465917078662
mGCP-III,42,2018-01-25_15:11,3,236,99,26_Caucasian_female_neutral_right.jpg,99,cue_right,target_F,target_right,cue_1,200ms,correct,0.5327286525680393
mGCP-III,42,2018-01-25_15:11,3,237,99,61_Caucasian_female_neutral_left.jpg,99,cue_left,target_F,target_right,cue_1,500ms,correct,0.4899699871966732
mGCP-III,42,2018-01-25_15:11,3,238,99,37_Caucasian_female_neutral_left.jpg,99,cue_left,target_E,target_left,cue_1,500ms,correct,0.4463540388896945
mGCP-III,42,2018-01-25_15:11,3,239,99,37_Caucasian_female_neutral_left.jpg,99,cue_left,target_F,target_left,cue_1,200ms,correct,0.5757101324907126
mGCP-III,42,2018-01-25_15:11,3,240,99,26_Caucasian_female_neutral_left.jpg,99,cue_left,target_E,target_left,cue_1,500ms,correct,0.5494725339594879
mGCP-III,42,2018-01-25_15:11,3,241,99,37_Caucasian_female_neutral_right.jpg,99,cue_right,target_F,target_left,cue_1,500ms,correct,0.7586570761595794
mGCP-III,42,2018-01-25_15:11,3,242,99,61_Caucasian_female_neutral_left.jpg,99,cue_left,target_F,target_left,cue_1,200ms,correct,0.5706482125660841
mGCP-III,42,2018-01-25_15:11,3,243,99,26_Caucasian_female_neutral_left.jpg,99,cue_left,target_F,target_right,cue_1,200ms,correct,0.6311364371722448
mGCP-III,42,2018-01-25_15:12,3,244,99,61_Caucasian_female_neutral_left.jpg,99,cue_left,target_E,target_right,cue_1,500ms,correct,0.4482929995538143
mGCP-III,42,2018-01-25_15:12,3,245,99,37_Caucasian_female_neutral_right.jpg,99,cue_right,target_F,target_right,cue_1,500ms,correct,0.4117644502548501
mGCP-III,42,2018-01-25_15:12,3,246,99,61_Caucasian_female_neutral_left.jpg,99,cue_left,target_F,target_right,cue_1,200ms,correct,0.4973366945141606
mGCP-III,42,2018-01-25_15:12,3,247,99,61_Caucasian_female_neutral_right.jpg,99,cue_right,target_E,target_left,cue_1,500ms,correct,0.5525421599504625
mGCP-III,42,2018-01-25_15:12,3,248,99,26_Caucasian_female_neutral_right.jpg,99,cue_right,target_F,target_right,cue_1,500ms,correct,0.3529919767006504
mGCP-III,42,2018-01-25_15:12,3,249,99,61_Caucasian_female_neutral_right.jpg,99,cue_right,target_F,target_right,cue_1,500ms,correct,0.516813609701785
mGCP-III,42,2018-01-25_15:12,3,250,99,37_Caucasian_female_neutral_right.jpg,99,cue_right,target_E,target_right,cue_1,500ms,incorrect,0.4714542560541304
mGCP-III,42,2018-01-25_15:12,3,251,99,37_Caucasian_female_neutral_left.jpg,99,cue_left,target_F,target_left,cue_1,500ms,correct,0.5765030204420327
mGCP-III,42,2018-01-25_15:12,3,252,99,37_Caucasian_female_neutral_left.jpg,99,cue_left,target_F,target_right,cue_1,500ms,correct,0.5121657139770832
mGCP-III,42,2018-01-25_15:12,3,253,99,37_Caucasian_female_neutral_right.jpg,99,cue_right,target_F,target_left,cue_1,500ms,correct,0.5863072557349369
mGCP-III,42,2018-01-25_15:12,3,254,99,37_Caucasian_female_neutral_right.jpg,99,cue_right,target_E,target_left,cue_1,500ms,correct,0.5061516964124166
mGCP-III,42,2018-01-25_15:12,3,255,99,61_Caucasian_female_neutral_right.jpg,99,cue_right,target_E,target_right,cue_1,200ms,correct,0.5869065636652522
mGCP-III,42,2018-01-25_15:12,3,256,99,37_Caucasian_female_neutral_right.jpg,99,cue_right,target_E,target_left,cue_1,200ms,correct,0.575441885895998
mGCP-III,42,2018-01-25_15:12,3,257,99,26_Caucasian_female_neutral_left.jpg,99,cue_left,target_F,target_right,cue_1,200ms,correct,0.5124576642465399
mGCP-III,42,2018-01-25_15:12,3,258,99,26_Caucasian_female_neutral_right.jpg,99,cue_right,target_E,target_right,cue_1,500ms,incorrect,0.5159579070132168
mGCP-III,42,2018-01-25_15:12,3,259,99,61_Caucasian_female_neutral_left.jpg,99,cue_left,target_F,target_left,cue_1,500ms,correct,0.5334034171992244
mGCP-III,42,2018-01-25_15:12,3,260,99,26_Caucasian_female_neutral_right.jpg,99,cue_right,target_F,target_left,cue_1,200ms,correct,0.5974171684920293
mGCP-III,42,2018-01-25_15:12,3,261,99,61_Caucasian_female_neutral_left.jpg,99,cue_left,target_E,target_right,cue_1,200ms,correct,0.4369614574297884
mGCP-III,42,2018-01-25_15:12,3,262,99,37_Caucasian_female_neutral_right.jpg,99,cue_right,target_E,target_left,cue_1,500ms,correct,0.4072611469491676
mGCP-III,42,2018-01-25_15:12,3,263,99,26_Caucasian_female_neutral_right.jpg,99,cue_right,target_E,target_left,cue_1,200ms,correct,0.5928925318803522
mGCP-III,42,2018-01-25_15:12,3,264,99,37_Caucasian_female_neutral_left.jpg,99,cue_left,target_E,target_right,cue_1,200ms,correct,0.5958851209252316
mGCP-III,42,2018-01-25_15:12,3,265,99,61_Caucasian_female_neutral_left.jpg,99,cue_left,target_E,target_left,cue_1,200ms,correct,0.5286907314293785
mGCP-III,42,2018-01-25_15:12,3,266,99,26_Caucasian_female_neutral_right.jpg,99,cue_right,target_F,target_left,cue_1,500ms,incorrect,0.39045050020649796
mGCP-III,42,2018-01-25_15:12,3,267,99,61_Caucasian_female_neutral_right.jpg,99,cue_right,target_F,target_left,cue_1,200ms,incorrect,0.5154628952550411
mGCP-III,42,2018-01-25_15:12,3,268,99,26_Caucasian_female_neutral_left.jpg,99,cue_left,target_F,target_left,cue_1,500ms,correct,0.6084887603101379
mGCP-III,42,2018-01-25_15:12,3,269,99,26_Caucasian_female_neutral_left.jpg,99,cue_left,target_F,target_right,cue_1,500ms,incorrect,0.46505900437296077
mGCP-III,42,2018-01-25_15:12,3,270,99,26_Caucasian_female_neutral_left.jpg,99,cue_left,target_E,target_left,cue_1,200ms,correct,0.6296834018576192
mGCP-III,42,2018-01-25_15:12,3,271,99,61_Caucasian_female_neutral_right.jpg,99,cue_right,target_E,target_right,cue_1,500ms,correct,0.4831121187817189
mGCP-III,42,2018-01-25_15:12,3,272,99,26_Caucasian_female_neutral_left.jpg,99,cue_left,target_E,target_right,cue_1,200ms,correct,0.5321530483124661
mGCP-III,42,2018-01-25_15:12,3,273,99,26_Caucasian_female_neutral_right.jpg,99,cue_right,target_E,target_left,cue_1,500ms,correct,0.5550195891119074
mGCP-III,42,2018-01-25_15:12,3,274,99,61_Caucasian_female_neutral_right.jpg,99,cue_right,target_F,target_right,cue_1,200ms,correct,0.5253662909235572
mGCP-III,42,2018-01-25_15:13,3,275,99,61_Caucasian_female_neutral_right.jpg,99,cue_right,target_E,target_left,cue_1,500ms,correct,0.5867070577296545
mGCP-III,42,2018-01-25_15:13,3,276,99,37_Caucasian_female_neutral_left.jpg,99,cue_left,target_F,target_right,cue_1,200ms,correct,0.5293026813214965
mGCP-III,42,2018-01-25_15:13,3,277,99,37_Caucasian_female_neutral_left.jpg,99,cue_left,target_E,target_left,cue_1,200ms,correct,0.3959951849938079
mGCP-III,42,2018-01-25_15:13,3,278,99,61_Caucasian_female_neutral_right.jpg,99,cue_right,target_F,target_left,cue_1,500ms,correct,0.5338608981401194
mGCP-III,42,2018-01-25_15:13,3,279,99,37_Caucasian_female_neutral_right.jpg,99,cue_right,target_E,target_right,cue_1,200ms,correct,0.4088014908029436
mGCP-III,42,2018-01-25_15:13,3,280,99,37_Caucasian_female_neutral_left.jpg,99,cue_left,target_E,target_right,cue_1,500ms,correct,0.43506318807339994
mGCP-III,42,2018-01-25_15:13,3,281,99,37_Caucasian_female_neutral_left.jpg,99,cue_left,target_E,target_left,cue_1,200ms,correct,0.44949359072415973
mGCP-III,42,2018-01-25_15:13,3,282,99,61_Caucasian_female_neutral_left.jpg,99,cue_left,target_F,target_right,cue_1,200ms,correct,0.5651371079857199
mGCP-III,42,2018-01-25_15:13,3,283,99,26_Caucasian_female_neutral_left.jpg,99,cue_left,target_E,target_left,cue_1,500ms,correct,0.7492155071031448
mGCP-III,42,2018-01-25_15:13,3,284,99,37_Caucasian_female_neutral_right.jpg,99,cue_right,target_E,target_right,cue_1,500ms,correct,0.5197121741675801
mGCP-III,42,2018-01-25_15:13,3,285,99,26_Caucasian_female_neutral_right.jpg,99,cue_right,target_E,target_right,cue_1,200ms,correct,0.39403331077664916
mGCP-III,42,2018-01-25_15:13,3,286,99,26_Caucasian_female_neutral_left.jpg,99,cue_left,target_E,target_right,cue_1,500ms,correct,0.415971852675284
mGCP-III,42,2018-01-25_15:13,3,287,99,61_Caucasian_female_neutral_left.jpg,99,cue_left,target_E,target_left,cue_1,200ms,correct,0.42201747514081944
mGCP-III,42,2018-01-25_15:13,3,288,99,37_Caucasian_female_neutral_left.jpg,99,cue_left,target_F,target_right,cue_1,200ms,correct,0.44358584463952866
mGCP-III,42,2018-01-25_15:13,4,289,61_Caucasian_female_neutral_left.jpg,37_Caucasian_female_neutral_left.jpg,26_Caucasian_female_neutral_left.jpg,cue_left,target_F,target_right,cue_3,500ms,correct,0.533766873559216
mGCP-III,42,2018-01-25_15:13,4,290,37_Caucasian_female_neutral_left.jpg,26_Caucasian_female_neutral_left.jpg,61_Caucasian_female_neutral_left.jpg,cue_left,target_F,target_left,cue_3,500ms,correct,0.4379680735182774
mGCP-III,42,2018-01-25_15:13,4,291,26_Caucasian_female_neutral_left.jpg,61_Caucasian_female_neutral_left.jpg,37_Caucasian_female_neutral_left.jpg,cue_left,target_F,target_right,cue_3,500ms,correct,0.3784686872459133
mGCP-III,42,2018-01-25_15:13,4,292,61_Caucasian_female_neutral_right.jpg,26_Caucasian_female_neutral_right.jpg,37_Caucasian_female_neutral_right.jpg,cue_right,target_F,target_right,cue_3,200ms,correct,0.7051989666779264
mGCP-III,42,2018-01-25_15:13,4,293,37_Caucasian_female_neutral_right.jpg,26_Caucasian_female_neutral_right.jpg,61_Caucasian_female_neutral_right.jpg,cue_right,target_E,target_left,cue_3,500ms,correct,0.5251201677583595
mGCP-III,42,2018-01-25_15:13,4,294,37_Caucasian_female_neutral_left.jpg,26_Caucasian_female_neutral_left.jpg,61_Caucasian_female_neutral_left.jpg,cue_left,target_E,target_left,cue_3,200ms,correct,0.6794200342683325
mGCP-III,42,2018-01-25_15:13,4,295,61_Caucasian_female_neutral_left.jpg,26_Caucasian_female_neutral_left.jpg,37_Caucasian_female_neutral_left.jpg,cue_left,target_E,target_right,cue_3,200ms,correct,0.4031509295982687
mGCP-III,42,2018-01-25_15:13,4,296,37_Caucasian_female_neutral_left.jpg,61_Caucasian_female_neutral_left.jpg,26_Caucasian_female_neutral_left.jpg,cue_left,target_E,target_left,cue_3,200ms,correct,0.38971924181532813
mGCP-III,42,2018-01-25_15:13,4,297,37_Caucasian_female_neutral_right.jpg,26_Caucasian_female_neutral_right.jpg,61_Caucasian_female_neutral_right.jpg,cue_right,target_F,target_right,cue_3,200ms,incorrect,0.40723744327442546
mGCP-III,42,2018-01-25_15:14,4,298,37_Caucasian_female_neutral_left.jpg,26_Caucasian_female_neutral_left.jpg,61_Caucasian_female_neutral_left.jpg,cue_left,target_E,target_right,cue_3,200ms,incorrect,0.4502671206719242
mGCP-III,42,2018-01-25_15:14,4,299,61_Caucasian_female_neutral_left.jpg,26_Caucasian_female_neutral_left.jpg,37_Caucasian_female_neutral_left.jpg,cue_left,target_F,target_left,cue_3,500ms,correct,0.45699185344165016
mGCP-III,42,2018-01-25_15:14,4,300,61_Caucasian_female_neutral_right.jpg,37_Caucasian_female_neutral_right.jpg,26_Caucasian_female_neutral_right.jpg,cue_right,target_F,target_right,cue_3,200ms,correct,0.5770557111427479
mGCP-III,42,2018-01-25_15:14,4,301,61_Caucasian_female_neutral_right.jpg,37_Caucasian_female_neutral_right.jpg,26_Caucasian_female_neutral_right.jpg,cue_right,target_F,target_right,cue_3,500ms,correct,0.3764096279592195
mGCP-III,42,2018-01-25_15:14,4,302,37_Caucasian_female_neutral_left.jpg,61_Caucasian_female_neutral_left.jpg,26_Caucasian_female_neutral_left.jpg,cue_left,target_F,target_right,cue_3,500ms,correct,0.4649080909730401
mGCP-III,42,2018-01-25_15:14,4,303,37_Caucasian_female_neutral_right.jpg,61_Caucasian_female_neutral_right.jpg,26_Caucasian_female_neutral_right.jpg,cue_right,target_F,target_left,cue_3,500ms,correct,0.5059182152072026
mGCP-III,42,2018-01-25_15:14,4,304,61_Caucasian_female_neutral_left.jpg,26_Caucasian_female_neutral_left.jpg,37_Caucasian_female_neutral_left.jpg,cue_left,target_E,target_left,cue_3,500ms,correct,0.5979169209877
mGCP-III,42,2018-01-25_15:14,4,305,61_Caucasian_female_neutral_left.jpg,26_Caucasian_female_neutral_left.jpg,37_Caucasian_female_neutral_left.jpg,cue_left,target_E,target_left,cue_3,200ms,correct,0.5078417684835586
mGCP-III,42,2018-01-25_15:14,4,306,61_Caucasian_female_neutral_left.jpg,37_Caucasian_female_neutral_left.jpg,26_Caucasian_female_neutral_left.jpg,cue_left,target_F,target_left,cue_3,500ms,correct,0.5366184257363784
mGCP-III,42,2018-01-25_15:14,4,307,37_Caucasian_female_neutral_left.jpg,61_Caucasian_female_neutral_left.jpg,26_Caucasian_female_neutral_left.jpg,cue_left,target_E,target_left,cue_3,500ms,correct,0.6865876307110739
mGCP-III,42,2018-01-25_15:14,4,308,37_Caucasian_female_neutral_left.jpg,26_Caucasian_female_neutral_left.jpg,61_Caucasian_female_neutral_left.jpg,cue_left,target_E,target_left,cue_3,500ms,correct,0.42573421147426416
mGCP-III,42,2018-01-25_15:14,4,309,37_Caucasian_female_neutral_right.jpg,61_Caucasian_female_neutral_right.jpg,26_Caucasian_female_neutral_right.jpg,cue_right,target_E,target_left,cue_3,500ms,correct,0.46057189858220227
mGCP-III,42,2018-01-25_15:14,4,310,61_Caucasian_female_neutral_right.jpg,26_Caucasian_female_neutral_right.jpg,37_Caucasian_female_neutral_right.jpg,cue_right,target_F,target_left,cue_3,200ms,correct,0.4357877304246358
mGCP-III,42,2018-01-25_15:14,4,311,61_Caucasian_female_neutral_left.jpg,26_Caucasian_female_neutral_left.jpg,37_Caucasian_female_neutral_left.jpg,cue_left,target_F,target_left,cue_3,200ms,correct,0.3978772568370914
mGCP-III,42,2018-01-25_15:14,4,312,37_Caucasian_female_neutral_left.jpg,26_Caucasian_female_neutral_left.jpg,61_Caucasian_female_neutral_left.jpg,cue_left,target_F,target_right,cue_3,500ms,incorrect,0.4600606893109216
mGCP-III,42,2018-01-25_15:14,4,313,61_Caucasian_female_neutral_left.jpg,37_Caucasian_female_neutral_left.jpg,26_Caucasian_female_neutral_left.jpg,cue_left,target_F,target_left,cue_3,200ms,correct,0.49138035589385254
mGCP-III,42,2018-01-25_15:14,4,314,61_Caucasian_female_neutral_right.jpg,37_Caucasian_female_neutral_right.jpg,26_Caucasian_female_neutral_right.jpg,cue_right,target_E,target_left,cue_3,200ms,correct,0.48881601325592783
mGCP-III,42,2018-01-25_15:14,4,315,61_Caucasian_female_neutral_right.jpg,37_Caucasian_female_neutral_right.jpg,26_Caucasian_female_neutral_right.jpg,cue_right,target_E,target_right,cue_3,200ms,correct,0.49546765969171247
mGCP-III,42,2018-01-25_15:14,4,316,61_Caucasian_female_neutral_right.jpg,26_Caucasian_female_neutral_right.jpg,37_Caucasian_female_neutral_right.jpg,cue_right,target_E,target_right,cue_3,200ms,correct,0.4011523146837135
mGCP-III,42,2018-01-25_15:14,4,317,37_Caucasian_female_neutral_right.jpg,61_Caucasian_female_neutral_right.jpg,26_Caucasian_female_neutral_right.jpg,cue_right,target_F,target_right,cue_3,200ms,correct,0.4822192803330836
mGCP-III,42,2018-01-25_15:14,4,318,26_Caucasian_female_neutral_left.jpg,37_Caucasian_female_neutral_left.jpg,61_Caucasian_female_neutral_left.jpg,cue_left,target_E,target_left,cue_3,200ms,correct,0.3586757230514195
mGCP-III,42,2018-01-25_15:14,4,319,61_Caucasian_female_neutral_right.jpg,26_Caucasian_female_neutral_right.jpg,37_Caucasian_female_neutral_right.jpg,cue_right,target_F,target_left,cue_3,500ms,correct,0.49339832881196344
mGCP-III,42,2018-01-25_15:14,4,320,37_Caucasian_female_neutral_right.jpg,61_Caucasian_female_neutral_right.jpg,26_Caucasian_female_neutral_right.jpg,cue_right,target_F,target_right,cue_3,500ms,correct,0.4614283913942927
mGCP-III,42,2018-01-25_15:14,4,321,26_Caucasian_female_neutral_right.jpg,37_Caucasian_female_neutral_right.jpg,61_Caucasian_female_neutral_right.jpg,cue_right,target_F,target_left,cue_3,500ms,correct,0.5032282430875057
mGCP-III,42,2018-01-25_15:14,4,322,37_Caucasian_female_neutral_right.jpg,26_Caucasian_female_neutral_right.jpg,61_Caucasian_female_neutral_right.jpg,cue_right,target_E,target_right,cue_3,500ms,correct,0.5196576557154913
mGCP-III,42,2018-01-25_15:14,4,323,26_Caucasian_female_neutral_left.jpg,61_Caucasian_female_neutral_left.jpg,37_Caucasian_female_neutral_left.jpg,cue_left,target_E,target_right,cue_3,500ms,incorrect,0.3888512922258087
mGCP-III,42,2018-01-25_15:14,4,324,37_Caucasian_female_neutral_left.jpg,26_Caucasian_female_neutral_left.jpg,61_Caucasian_female_neutral_left.jpg,cue_left,target_F,target_right,cue_3,200ms,correct,0.4844802159259416
mGCP-III,42,2018-01-25_15:14,4,325,37_Caucasian_female_neutral_right.jpg,61_Caucasian_female_neutral_right.jpg,26_Caucasian_female_neutral_right.jpg,cue_right,target_F,target_left,cue_3,200ms,correct,0.5217969124387309
mGCP-III,42,2018-01-25_15:14,4,326,61_Caucasian_female_neutral_right.jpg,37_Caucasian_female_neutral_right.jpg,26_Caucasian_female_neutral_right.jpg,cue_right,target_E,target_left,cue_3,500ms,correct,0.4155977296632045
mGCP-III,42,2018-01-25_15:14,4,327,26_Caucasian_female_neutral_right.jpg,37_Caucasian_female_neutral_right.jpg,61_Caucasian_female_neutral_right.jpg,cue_right,target_E,target_right,cue_3,200ms,correct,0.5055867588107503
mGCP-III,42,2018-01-25_15:14,4,328,61_Caucasian_female_neutral_right.jpg,26_Caucasian_female_neutral_right.jpg,37_Caucasian_female_neutral_right.jpg,cue_right,target_E,target_left,cue_3,200ms,correct,0.38067668463008886
mGCP-III,42,2018-01-25_15:14,4,329,61_Caucasian_female_neutral_right.jpg,37_Caucasian_female_neutral_right.jpg,26_Caucasian_female_neutral_right.jpg,cue_right,target_F,target_left,cue_3,200ms,incorrect,0.4650080414721742
mGCP-III,42,2018-01-25_15:15,4,330,26_Caucasian_female_neutral_left.jpg,61_Caucasian_female_neutral_left.jpg,37_Caucasian_female_neutral_left.jpg,cue_left,target_E,target_right,cue_3,200ms,incorrect,0.36982474687465583
mGCP-III,42,2018-01-25_15:15,4,331,26_Caucasian_female_neutral_right.jpg,61_Caucasian_female_neutral_right.jpg,37_Caucasian_female_neutral_right.jpg,cue_right,target_F,target_right,cue_3,200ms,correct,0.4374347408174799
mGCP-III,42,2018-01-25_15:15,4,332,26_Caucasian_female_neutral_right.jpg,61_Caucasian_female_neutral_right.jpg,37_Caucasian_female_neutral_right.jpg,cue_right,target_F,target_right,cue_3,500ms,correct,0.3862142583129753
mGCP-III,42,2018-01-25_15:15,4,333,61_Caucasian_female_neutral_left.jpg,37_Caucasian_female_neutral_left.jpg,26_Caucasian_female_neutral_left.jpg,cue_left,target_E,target_left,cue_3,500ms,correct,0.364172210363904
mGCP-III,42,2018-01-25_15:15,4,334,37_Caucasian_female_neutral_left.jpg,61_Caucasian_female_neutral_left.jpg,26_Caucasian_female_neutral_left.jpg,cue_left,target_F,target_left,cue_3,500ms,correct,0.4572549642416561
mGCP-III,42,2018-01-25_15:15,4,335,26_Caucasian_female_neutral_right.jpg,61_Caucasian_female_neutral_right.jpg,37_Caucasian_female_neutral_right.jpg,cue_right,target_F,target_left,cue_3,500ms,correct,0.3406980653453502
mGCP-III,42,2018-01-25_15:15,4,336,37_Caucasian_female_neutral_right.jpg,61_Caucasian_female_neutral_right.jpg,26_Caucasian_female_neutral_right.jpg,cue_right,target_E,target_left,cue_3,200ms,incorrect,0.39333721283401246
mGCP-III,42,2018-01-25_15:15,4,337,26_Caucasian_female_neutral_right.jpg,37_Caucasian_female_neutral_right.jpg,61_Caucasian_female_neutral_right.jpg,cue_right,target_F,target_left,cue_3,200ms,correct,0.4905108260609268
mGCP-III,42,2018-01-25_15:15,4,338,26_Caucasian_female_neutral_left.jpg,61_Caucasian_female_neutral_left.jpg,37_Caucasian_female_neutral_left.jpg,cue_left,target_F,target_left,cue_3,500ms,correct,0.5106585552694014
mGCP-III,42,2018-01-25_15:15,4,339,26_Caucasian_female_neutral_left.jpg,37_Caucasian_female_neutral_left.jpg,61_Caucasian_female_neutral_left.jpg,cue_left,target_F,target_right,cue_3,500ms,correct,0.3881524288553919
mGCP-III,42,2018-01-25_15:15,4,340,26_Caucasian_female_neutral_left.jpg,61_Caucasian_female_neutral_left.jpg,37_Caucasian_female_neutral_left.jpg,cue_left,target_F,target_left,cue_3,200ms,correct,0.42982270045649784
mGCP-III,42,2018-01-25_15:15,4,341,61_Caucasian_female_neutral_right.jpg,37_Caucasian_female_neutral_right.jpg,26_Caucasian_female_neutral_right.jpg,cue_right,target_E,target_right,cue_3,500ms,incorrect,0.3624932000093395
mGCP-III,42,2018-01-25_15:15,4,342,37_Caucasian_female_neutral_right.jpg,61_Caucasian_female_neutral_right.jpg,26_Caucasian_female_neutral_right.jpg,cue_right,target_E,target_right,cue_3,500ms,correct,0.41174627743748715
mGCP-III,42,2018-01-25_15:15,4,343,37_Caucasian_female_neutral_right.jpg,26_Caucasian_female_neutral_right.jpg,61_Caucasian_female_neutral_right.jpg,cue_right,target_E,target_left,cue_3,200ms,correct,0.46498828840776696
mGCP-III,42,2018-01-25_15:15,4,344,61_Caucasian_female_neutral_right.jpg,37_Caucasian_female_neutral_right.jpg,26_Caucasian_female_neutral_right.jpg,cue_right,target_F,target_left,cue_3,500ms,incorrect,0.3225564572185249
mGCP-III,42,2018-01-25_15:15,4,345,26_Caucasian_female_neutral_right.jpg,37_Caucasian_female_neutral_right.jpg,61_Caucasian_female_neutral_right.jpg,cue_right,target_F,target_right,cue_3,500ms,correct,0.47061435581599653
mGCP-III,42,2018-01-25_15:15,4,346,26_Caucasian_female_neutral_left.jpg,61_Caucasian_female_neutral_left.jpg,37_Caucasian_female_neutral_left.jpg,cue_left,target_F,target_right,cue_3,200ms,correct,0.35189568170426355
mGCP-III,42,2018-01-25_15:15,4,347,26_Caucasian_female_neutral_right.jpg,37_Caucasian_female_neutral_right.jpg,61_Caucasian_female_neutral_right.jpg,cue_right,target_E,target_left,cue_3,500ms,correct,0.3624359161258326
mGCP-III,42,2018-01-25_15:15,4,348,26_Caucasian_female_neutral_left.jpg,61_Caucasian_female_neutral_left.jpg,37_Caucasian_female_neutral_left.jpg,cue_left,target_E,target_left,cue_3,500ms,incorrect,0.4340395843482838
mGCP-III,42,2018-01-25_15:15,4,349,61_Caucasian_female_neutral_right.jpg,26_Caucasian_female_neutral_right.jpg,37_Caucasian_female_neutral_right.jpg,cue_right,target_E,target_right,cue_3,500ms,correct,0.4847472773362824
mGCP-III,42,2018-01-25_15:15,4,350,37_Caucasian_female_neutral_left.jpg,61_Caucasian_female_neutral_left.jpg,26_Caucasian_female_neutral_left.jpg,cue_left,target_F,target_left,cue_3,200ms,correct,0.5027968361901003
mGCP-III,42,2018-01-25_15:15,4,351,61_Caucasian_female_neutral_left.jpg,37_Caucasian_female_neutral_left.jpg,26_Caucasian_female_neutral_left.jpg,cue_left,target_F,target_right,cue_3,200ms,correct,0.4924347743981343
mGCP-III,42,2018-01-25_15:15,4,352,61_Caucasian_female_neutral_left.jpg,26_Caucasian_female_neutral_left.jpg,37_Caucasian_female_neutral_left.jpg,cue_left,target_F,target_right,cue_3,200ms,correct,0.3881030461980117
mGCP-III,42,2018-01-25_15:15,4,353,26_Caucasian_female_neutral_right.jpg,37_Caucasian_female_neutral_right.jpg,61_Caucasian_female_neutral_right.jpg,cue_right,target_E,target_left,cue_3,200ms,correct,0.3458721826700639
mGCP-III,42,2018-01-25_15:15,4,354,37_Caucasian_female_neutral_right.jpg,61_Caucasian_female_neutral_right.jpg,26_Caucasian_female_neutral_right.jpg,cue_right,target_E,target_right,cue_3,200ms,incorrect,0.34302537122857757
mGCP-III,42,2018-01-25_15:15,4,355,61_Caucasian_female_neutral_right.jpg,26_Caucasian_female_neutral_right.jpg,37_Caucasian_female_neutral_right.jpg,cue_right,target_F,target_right,cue_3,500ms,correct,0.34795455057246727
mGCP-III,42,2018-01-25_15:15,4,356,37_Caucasian_female_neutral_left.jpg,61_Caucasian_female_neutral_left.jpg,26_Caucasian_female_neutral_left.jpg,cue_left,target_E,target_right,cue_3,500ms,correct,0.3199075714674109
mGCP-III,42,2018-01-25_15:15,4,357,26_Caucasian_female_neutral_right.jpg,61_Caucasian_female_neutral_right.jpg,37_Caucasian_female_neutral_right.jpg,cue_right,target_E,target_left,cue_3,500ms,correct,0.36837921772348636
mGCP-III,42,2018-01-25_15:15,4,358,61_Caucasian_female_neutral_left.jpg,26_Caucasian_female_neutral_left.jpg,37_Caucasian_female_neutral_left.jpg,cue_left,target_F,target_right,cue_3,500ms,incorrect,0.34476285065102275
mGCP-III,42,2018-01-25_15:15,4,359,37_Caucasian_female_neutral_left.jpg,26_Caucasian_female_neutral_left.jpg,61_Caucasian_female_neutral_left.jpg,cue_left,target_F,target_left,cue_3,200ms,correct,0.5349903782844194
mGCP-III,42,2018-01-25_15:15,4,360,26_Caucasian_female_neutral_right.jpg,37_Caucasian_female_neutral_right.jpg,61_Caucasian_female_neutral_right.jpg,cue_right,target_F,target_right,cue_3,200ms,correct,0.3480691183376621
mGCP-III,42,2018-01-25_15:15,4,361,61_Caucasian_female_neutral_left.jpg,37_Caucasian_female_neutral_left.jpg,26_Caucasian_female_neutral_left.jpg,cue_left,target_E,target_right,cue_3,500ms,correct,0.37641397363222495
mGCP-III,42,2018-01-25_15:16,4,362,26_Caucasian_female_neutral_left.jpg,61_Caucasian_female_neutral_left.jpg,37_Caucasian_female_neutral_left.jpg,cue_left,target_E,target_left,cue_3,200ms,correct,0.39345731145840546
mGCP-III,42,2018-01-25_15:16,4,363,26_Caucasian_female_neutral_right.jpg,61_Caucasian_female_neutral_right.jpg,37_Caucasian_female_neutral_right.jpg,cue_right,target_F,target_left,cue_3,200ms,incorrect,0.3485823029150197
mGCP-III,42,2018-01-25_15:16,4,364,37_Caucasian_female_neutral_right.jpg,26_Caucasian_female_neutral_right.jpg,61_Caucasian_female_neutral_right.jpg,cue_right,target_F,target_right,cue_3,500ms,correct,0.4981655330375361
mGCP-III,42,2018-01-25_15:16,4,365,61_Caucasian_female_neutral_left.jpg,37_Caucasian_female_neutral_left.jpg,26_Caucasian_female_neutral_left.jpg,cue_left,target_E,target_right,cue_3,200ms,correct,0.4079276152951934
mGCP-III,42,2018-01-25_15:16,4,366,37_Caucasian_female_neutral_left.jpg,26_Caucasian_female_neutral_left.jpg,61_Caucasian_female_neutral_left.jpg,cue_left,target_E,target_right,cue_3,500ms,correct,0.47395894444343867
mGCP-III,42,2018-01-25_15:16,4,367,26_Caucasian_female_neutral_left.jpg,37_Caucasian_female_neutral_left.jpg,61_Caucasian_female_neutral_left.jpg,cue_left,target_F,target_left,cue_3,200ms,correct,0.4406457987424801
mGCP-III,42,2018-01-25_15:16,4,368,61_Caucasian_female_neutral_left.jpg,26_Caucasian_female_neutral_left.jpg,37_Caucasian_female_neutral_left.jpg,cue_left,target_E,target_right,cue_3,500ms,correct,0.5248056989948964
mGCP-III,42,2018-01-25_15:16,4,369,61_Caucasian_female_neutral_right.jpg,26_Caucasian_female_neutral_right.jpg,37_Caucasian_female_neutral_right.jpg,cue_right,target_E,target_left,cue_3,500ms,correct,0.4124419803156343
mGCP-III,42,2018-01-25_15:16,4,370,26_Caucasian_female_neutral_left.jpg,37_Caucasian_female_neutral_left.jpg,61_Caucasian_female_neutral_left.jpg,cue_left,target_E,target_right,cue_3,200ms,correct,0.4045549773181847
mGCP-III,42,2018-01-25_15:16,4,371,26_Caucasian_female_neutral_left.jpg,37_Caucasian_female_neutral_left.jpg,61_Caucasian_female_neutral_left.jpg,cue_left,target_E,target_right,cue_3,500ms,correct,0.3527434831685241
mGCP-III,42,2018-01-25_15:16,4,372,37_Caucasian_female_neutral_left.jpg,61_Caucasian_female_neutral_left.jpg,26_Caucasian_female_neutral_left.jpg,cue_left,target_E,target_right,cue_3,200ms,correct,0.3218492975611298
mGCP-III,42,2018-01-25_15:16,4,373,26_Caucasian_female_neutral_right.jpg,37_Caucasian_female_neutral_right.jpg,61_Caucasian_female_neutral_right.jpg,cue_right,target_E,target_right,cue_3,500ms,correct,0.3201090527109045
mGCP-III,42,2018-01-25_15:16,4,374,26_Caucasian_female_neutral_right.jpg,61_Caucasian_female_neutral_right.jpg,37_Caucasian_female_neutral_right.jpg,cue_right,target_E,target_right,cue_3,200ms,correct,0.38214354708907194
mGCP-III,42,2018-01-25_15:16,4,375,26_Caucasian_female_neutral_right.jpg,61_Caucasian_female_neutral_right.jpg,37_Caucasian_female_neutral_right.jpg,cue_right,target_E,target_right,cue_3,500ms,correct,0.47776101400995685
mGCP-III,42,2018-01-25_15:16,4,376,37_Caucasian_female_neutral_right.jpg,26_Caucasian_female_neutral_right.jpg,61_Caucasian_female_neutral_right.jpg,cue_right,target_F,target_left,cue_3,200ms,correct,0.47061672618292505
mGCP-III,42,2018-01-25_15:16,4,377,37_Caucasian_female_neutral_right.jpg,26_Caucasian_female_neutral_right.jpg,61_Caucasian_female_neutral_right.jpg,cue_right,target_E,target_right,cue_3,200ms,correct,0.39035529044485884
mGCP-III,42,2018-01-25_15:16,4,378,26_Caucasian_female_neutral_left.jpg,37_Caucasian_female_neutral_left.jpg,61_Caucasian_female_neutral_left.jpg,cue_left,target_F,target_right,cue_3,200ms,incorrect,0.4168567898977926
mGCP-III,42,2018-01-25_15:16,4,379,26_Caucasian_female_neutral_left.jpg,37_Caucasian_female_neutral_left.jpg,61_Caucasian_female_neutral_left.jpg,cue_left,target_F,target_left,cue_3,500ms,correct,0.40367438576868153
mGCP-III,42,2018-01-25_15:16,4,380,61_Caucasian_female_neutral_left.jpg,37_Caucasian_female_neutral_left.jpg,26_Caucasian_female_neutral_left.jpg,cue_left,target_E,target_left,cue_3,200ms,correct,0.51811849704427
mGCP-III,42,2018-01-25_15:16,4,381,37_Caucasian_female_neutral_right.jpg,26_Caucasian_female_neutral_right.jpg,61_Caucasian_female_neutral_right.jpg,cue_right,target_F,target_left,cue_3,500ms,incorrect,0.39367340996795974
mGCP-III,42,2018-01-25_15:16,4,382,26_Caucasian_female_neutral_right.jpg,61_Caucasian_female_neutral_right.jpg,37_Caucasian_female_neutral_right.jpg,cue_right,target_E,target_left,cue_3,200ms,correct,0.4969329419072892
mGCP-III,42,2018-01-25_15:16,4,383,26_Caucasian_female_neutral_left.jpg,37_Caucasian_female_neutral_left.jpg,61_Caucasian_female_neutral_left.jpg,cue_left,target_E,target_left,cue_3,500ms,incorrect,0.44982346687538666
mGCP-III,42,2018-01-25_15:16,4,384,37_Caucasian_female_neutral_left.jpg,61_Caucasian_female_neutral_left.jpg,26_Caucasian_female_neutral_left.jpg,cue_left,target_F,target_right,cue_3,200ms,correct,0.4191702686384815
