experiment,subject,date,block,trial,face_left,face_top,face_right,cue_dir,target_id,target_pos,cue_num,isi,correct_response,rt
mGCP-III,60,2018-01-31_16:35,1,1,99,26_Caucasian_female_neutral_right.jpg,99,cue_right,target_E,target_left,cue_1,500ms,99,99
mGCP-III,60,2018-01-31_16:35,1,2,99,61_Caucasian_female_neutral_right.jpg,99,cue_right,target_F,target_right,cue_1,200ms,correct,0.558614344143848
mGCP-III,60,2018-01-31_16:35,1,3,99,61_Caucasian_female_neutral_right.jpg,99,cue_right,target_F,target_left,cue_1,500ms,incorrect,0.4542401794528814
mGCP-III,60,2018-01-31_16:35,1,4,99,37_Caucasian_female_neutral_left.jpg,99,cue_left,target_F,target_right,cue_1,500ms,correct,0.6209950107635223
mGCP-III,60,2018-01-31_16:35,1,5,99,61_Caucasian_female_neutral_left.jpg,99,cue_left,target_F,target_right,cue_1,200ms,correct,0.5755830422057215
mGCP-III,60,2018-01-31_16:35,1,6,99,26_Caucasian_female_neutral_right.jpg,99,cue_right,target_E,target_left,cue_1,200ms,correct,0.693401557887114
mGCP-III,60,2018-01-31_16:36,1,7,99,61_Caucasian_female_neutral_left.jpg,99,cue_left,target_E,target_right,cue_1,200ms,correct,0.7722930458440942
mGCP-III,60,2018-01-31_16:36,1,8,99,26_Caucasian_female_neutral_left.jpg,99,cue_left,target_F,target_right,cue_1,500ms,correct,0.6474831199933533
mGCP-III,60,2018-01-31_16:36,1,9,99,26_Caucasian_female_neutral_left.jpg,99,cue_left,target_F,target_left,cue_1,200ms,correct,0.775897195416178
mGCP-III,60,2018-01-31_16:36,1,10,99,26_Caucasian_female_neutral_left.jpg,99,cue_left,target_F,target_right,cue_1,500ms,correct,0.4471634359164227
mGCP-III,60,2018-01-31_16:36,1,11,99,61_Caucasian_female_neutral_left.jpg,99,cue_left,target_E,target_left,cue_1,500ms,99,99
mGCP-III,60,2018-01-31_16:36,1,12,99,26_Caucasian_female_neutral_left.jpg,99,cue_left,target_E,target_left,cue_1,200ms,correct,0.5825432424861674
mGCP-III,60,2018-01-31_16:36,1,13,99,37_Caucasian_female_neutral_right.jpg,99,cue_right,target_E,target_right,cue_1,200ms,correct,0.604801029057171
mGCP-III,60,2018-01-31_16:36,1,14,99,61_Caucasian_female_neutral_right.jpg,99,cue_right,target_E,target_right,cue_1,500ms,correct,0.6100928829996519
mGCP-III,60,2018-01-31_16:36,1,15,99,26_Caucasian_female_neutral_right.jpg,99,cue_right,target_F,target_right,cue_1,500ms,correct,0.6016591018900499
mGCP-III,60,2018-01-31_16:36,1,16,99,37_Caucasian_female_neutral_left.jpg,99,cue_left,target_E,target_right,cue_1,200ms,correct,0.6762546869153994
mGCP-III,60,2018-01-31_16:36,1,17,99,26_Caucasian_female_neutral_right.jpg,99,cue_right,target_F,target_left,cue_1,200ms,correct,0.6189098741372163
mGCP-III,60,2018-01-31_16:36,1,18,99,26_Caucasian_female_neutral_right.jpg,99,cue_right,target_E,target_right,cue_1,200ms,correct,0.6673721155050316
mGCP-III,60,2018-01-31_16:36,1,19,99,61_Caucasian_female_neutral_right.jpg,99,cue_right,target_E,target_right,cue_1,200ms,correct,0.6649010034177536
mGCP-III,60,2018-01-31_16:36,1,20,99,61_Caucasian_female_neutral_left.jpg,99,cue_left,target_F,target_right,cue_1,500ms,99,99
mGCP-III,60,2018-01-31_16:36,1,21,99,61_Caucasian_female_neutral_left.jpg,99,cue_left,target_E,target_left,cue_1,500ms,correct,0.5753957828724197
mGCP-III,60,2018-01-31_16:36,1,22,99,61_Caucasian_female_neutral_right.jpg,99,cue_right,target_F,target_right,cue_1,500ms,correct,0.5791006732249571
mGCP-III,60,2018-01-31_16:36,1,23,99,37_Caucasian_female_neutral_left.jpg,99,cue_left,target_F,target_right,cue_1,500ms,correct,0.6284403470381221
mGCP-III,60,2018-01-31_16:36,1,24,99,26_Caucasian_female_neutral_left.jpg,99,cue_left,target_F,target_right,cue_1,200ms,correct,0.5469671296660863
mGCP-III,60,2018-01-31_16:36,1,25,99,37_Caucasian_female_neutral_right.jpg,99,cue_right,target_E,target_left,cue_1,500ms,correct,0.6380976348040122
mGCP-III,60,2018-01-31_16:36,1,26,99,61_Caucasian_female_neutral_left.jpg,99,cue_left,target_F,target_right,cue_1,500ms,correct,0.5885944053705998
mGCP-III,60,2018-01-31_16:36,1,27,99,37_Caucasian_female_neutral_left.jpg,99,cue_left,target_E,target_left,cue_1,500ms,correct,0.5479306856021822
mGCP-III,60,2018-01-31_16:36,1,28,99,26_Caucasian_female_neutral_left.jpg,99,cue_left,target_F,target_left,cue_1,200ms,correct,0.6156569345805565
mGCP-III,60,2018-01-31_16:36,1,29,99,26_Caucasian_female_neutral_left.jpg,99,cue_left,target_F,target_right,cue_1,200ms,correct,0.5741315848421209
mGCP-III,60,2018-01-31_16:36,1,30,99,61_Caucasian_female_neutral_left.jpg,99,cue_left,target_F,target_left,cue_1,500ms,correct,0.671643919661733
mGCP-III,60,2018-01-31_16:36,1,31,99,26_Caucasian_female_neutral_right.jpg,99,cue_right,target_F,target_left,cue_1,200ms,correct,0.5389078672228607
mGCP-III,60,2018-01-31_16:36,1,32,99,61_Caucasian_female_neutral_right.jpg,99,cue_right,target_F,target_right,cue_1,500ms,correct,0.43737064192418984
mGCP-III,60,2018-01-31_16:36,1,33,99,37_Caucasian_female_neutral_right.jpg,99,cue_right,target_F,target_left,cue_1,200ms,correct,0.5318149261490817
mGCP-III,60,2018-01-31_16:36,1,34,99,37_Caucasian_female_neutral_left.jpg,99,cue_left,target_E,target_right,cue_1,500ms,incorrect,0.3371296146684699
mGCP-III,60,2018-01-31_16:36,1,35,99,61_Caucasian_female_neutral_left.jpg,99,cue_left,target_E,target_right,cue_1,500ms,correct,0.7644317094050166
mGCP-III,60,2018-01-31_16:37,1,36,99,26_Caucasian_female_neutral_left.jpg,99,cue_left,target_E,target_left,cue_1,500ms,correct,0.5089870652789159
mGCP-III,60,2018-01-31_16:37,1,37,99,37_Caucasian_female_neutral_left.jpg,99,cue_left,target_E,target_left,cue_1,500ms,correct,0.44696590497414945
mGCP-III,60,2018-01-31_16:37,1,38,99,61_Caucasian_female_neutral_right.jpg,99,cue_right,target_E,target_right,cue_1,500ms,correct,0.43309212171539
mGCP-III,60,2018-01-31_16:37,1,39,99,26_Caucasian_female_neutral_right.jpg,99,cue_right,target_E,target_left,cue_1,200ms,correct,0.6960437317702599
mGCP-III,60,2018-01-31_16:37,1,40,99,37_Caucasian_female_neutral_left.jpg,99,cue_left,target_F,target_left,cue_1,200ms,correct,0.6361120537726492
mGCP-III,60,2018-01-31_16:37,1,41,99,26_Caucasian_female_neutral_right.jpg,99,cue_right,target_F,target_left,cue_1,500ms,correct,0.7263449783091573
mGCP-III,60,2018-01-31_16:37,1,42,99,26_Caucasian_female_neutral_right.jpg,99,cue_right,target_F,target_right,cue_1,200ms,correct,0.5751903506925373
mGCP-III,60,2018-01-31_16:37,1,43,99,61_Caucasian_female_neutral_right.jpg,99,cue_right,target_F,target_left,cue_1,200ms,correct,0.5406117691305781
mGCP-III,60,2018-01-31_16:37,1,44,99,61_Caucasian_female_neutral_left.jpg,99,cue_left,target_E,target_right,cue_1,200ms,correct,0.6782789840115129
mGCP-III,60,2018-01-31_16:37,1,45,99,26_Caucasian_female_neutral_right.jpg,99,cue_right,target_E,target_right,cue_1,500ms,correct,0.6560030245938151
mGCP-III,60,2018-01-31_16:37,1,46,99,26_Caucasian_female_neutral_right.jpg,99,cue_right,target_F,target_right,cue_1,200ms,correct,0.6262303708564332
mGCP-III,60,2018-01-31_16:37,1,47,99,37_Caucasian_female_neutral_left.jpg,99,cue_left,target_E,target_right,cue_1,200ms,correct,0.7606738807601232
mGCP-III,60,2018-01-31_16:37,1,48,99,26_Caucasian_female_neutral_right.jpg,99,cue_right,target_E,target_right,cue_1,200ms,correct,0.6436087480923334
mGCP-III,60,2018-01-31_16:37,1,49,99,37_Caucasian_female_neutral_right.jpg,99,cue_right,target_E,target_right,cue_1,500ms,correct,0.4126227802954645
mGCP-III,60,2018-01-31_16:37,1,50,99,37_Caucasian_female_neutral_right.jpg,99,cue_right,target_F,target_left,cue_1,200ms,correct,0.5772122774171748
mGCP-III,60,2018-01-31_16:37,1,51,99,61_Caucasian_female_neutral_right.jpg,99,cue_right,target_F,target_right,cue_1,200ms,99,99
mGCP-III,60,2018-01-31_16:37,1,52,99,37_Caucasian_female_neutral_left.jpg,99,cue_left,target_F,target_right,cue_1,200ms,correct,0.5599002705779412
mGCP-III,60,2018-01-31_16:37,1,53,99,37_Caucasian_female_neutral_right.jpg,99,cue_right,target_E,target_left,cue_1,200ms,correct,0.6270220748729116
mGCP-III,60,2018-01-31_16:37,1,54,99,61_Caucasian_female_neutral_right.jpg,99,cue_right,target_F,target_left,cue_1,500ms,correct,0.7725873669480734
mGCP-III,60,2018-01-31_16:37,1,55,99,37_Caucasian_female_neutral_left.jpg,99,cue_left,target_E,target_left,cue_1,200ms,correct,0.682229997918057
mGCP-III,60,2018-01-31_16:37,1,56,99,26_Caucasian_female_neutral_right.jpg,99,cue_right,target_E,target_left,cue_1,500ms,correct,0.5265436154245435
mGCP-III,60,2018-01-31_16:37,1,57,99,37_Caucasian_female_neutral_left.jpg,99,cue_left,target_F,target_left,cue_1,500ms,correct,0.5744910911570287
mGCP-III,60,2018-01-31_16:37,1,58,99,61_Caucasian_female_neutral_right.jpg,99,cue_right,target_E,target_left,cue_1,200ms,correct,0.6608954709710133
mGCP-III,60,2018-01-31_16:37,1,59,99,26_Caucasian_female_neutral_right.jpg,99,cue_right,target_F,target_left,cue_1,500ms,correct,0.6227850361619858
mGCP-III,60,2018-01-31_16:37,1,60,99,37_Caucasian_female_neutral_left.jpg,99,cue_left,target_F,target_left,cue_1,200ms,correct,0.5753345482802388
mGCP-III,60,2018-01-31_16:37,1,61,99,37_Caucasian_female_neutral_right.jpg,99,cue_right,target_F,target_right,cue_1,500ms,correct,0.603913720064611
mGCP-III,60,2018-01-31_16:37,1,62,99,37_Caucasian_female_neutral_right.jpg,99,cue_right,target_E,target_left,cue_1,500ms,correct,0.5625621975555077
mGCP-III,60,2018-01-31_16:37,1,63,99,26_Caucasian_female_neutral_left.jpg,99,cue_left,target_F,target_left,cue_1,500ms,correct,0.621674517204724
mGCP-III,60,2018-01-31_16:37,1,64,99,26_Caucasian_female_neutral_left.jpg,99,cue_left,target_E,target_left,cue_1,500ms,incorrect,0.44611020093248044
mGCP-III,60,2018-01-31_16:38,1,65,99,61_Caucasian_female_neutral_left.jpg,99,cue_left,target_F,target_right,cue_1,200ms,correct,0.6585701367190495
mGCP-III,60,2018-01-31_16:38,1,66,99,37_Caucasian_female_neutral_right.jpg,99,cue_right,target_E,target_right,cue_1,500ms,correct,0.579371290615768
mGCP-III,60,2018-01-31_16:38,1,67,99,37_Caucasian_female_neutral_right.jpg,99,cue_right,target_F,target_right,cue_1,200ms,correct,0.6422927969551893
mGCP-III,60,2018-01-31_16:38,1,68,99,37_Caucasian_female_neutral_right.jpg,99,cue_right,target_F,target_left,cue_1,500ms,correct,0.6572158645790296
mGCP-III,60,2018-01-31_16:38,1,69,99,37_Caucasian_female_neutral_right.jpg,99,cue_right,target_F,target_left,cue_1,500ms,correct,0.41093349567734094
mGCP-III,60,2018-01-31_16:38,1,70,99,61_Caucasian_female_neutral_left.jpg,99,cue_left,target_F,target_left,cue_1,500ms,correct,0.3816214840974226
mGCP-III,60,2018-01-31_16:38,1,71,99,26_Caucasian_female_neutral_left.jpg,99,cue_left,target_E,target_right,cue_1,500ms,correct,0.5639599265026618
mGCP-III,60,2018-01-31_16:38,1,72,99,61_Caucasian_female_neutral_left.jpg,99,cue_left,target_E,target_right,cue_1,500ms,correct,0.5439172519178328
mGCP-III,60,2018-01-31_16:38,1,73,99,61_Caucasian_female_neutral_left.jpg,99,cue_left,target_F,target_left,cue_1,200ms,correct,0.6123174764711621
mGCP-III,60,2018-01-31_16:38,1,74,99,61_Caucasian_female_neutral_right.jpg,99,cue_right,target_E,target_right,cue_1,200ms,correct,0.6125011802473637
mGCP-III,60,2018-01-31_16:38,1,75,99,37_Caucasian_female_neutral_right.jpg,99,cue_right,target_F,target_right,cue_1,200ms,correct,0.5728847695347667
mGCP-III,60,2018-01-31_16:38,1,76,99,26_Caucasian_female_neutral_left.jpg,99,cue_left,target_E,target_right,cue_1,200ms,correct,0.6865326169017862
mGCP-III,60,2018-01-31_16:38,1,77,99,61_Caucasian_female_neutral_left.jpg,99,cue_left,target_F,target_left,cue_1,200ms,correct,0.5990722366705086
mGCP-III,60,2018-01-31_16:38,1,78,99,61_Caucasian_female_neutral_right.jpg,99,cue_right,target_F,target_left,cue_1,200ms,99,99
mGCP-III,60,2018-01-31_16:38,1,79,99,37_Caucasian_female_neutral_left.jpg,99,cue_left,target_F,target_left,cue_1,500ms,correct,0.6017128303063828
mGCP-III,60,2018-01-31_16:38,1,80,99,61_Caucasian_female_neutral_left.jpg,99,cue_left,target_E,target_left,cue_1,200ms,correct,0.6314159531519863
mGCP-III,60,2018-01-31_16:38,1,81,99,37_Caucasian_female_neutral_right.jpg,99,cue_right,target_F,target_right,cue_1,500ms,correct,0.615910959372286
mGCP-III,60,2018-01-31_16:38,1,82,99,26_Caucasian_female_neutral_left.jpg,99,cue_left,target_E,target_right,cue_1,200ms,correct,0.6337444478990619
mGCP-III,60,2018-01-31_16:38,1,83,99,26_Caucasian_female_neutral_right.jpg,99,cue_right,target_F,target_right,cue_1,500ms,correct,0.598214557319352
mGCP-III,60,2018-01-31_16:38,1,84,99,37_Caucasian_female_neutral_left.jpg,99,cue_left,target_E,target_right,cue_1,500ms,correct,0.6763925635131045
mGCP-III,60,2018-01-31_16:38,1,85,99,26_Caucasian_female_neutral_left.jpg,99,cue_left,target_E,target_right,cue_1,500ms,correct,0.6751931556318596
mGCP-III,60,2018-01-31_16:38,1,86,99,26_Caucasian_female_neutral_left.jpg,99,cue_left,target_F,target_left,cue_1,500ms,correct,0.6391911661002041
mGCP-III,60,2018-01-31_16:38,1,87,99,26_Caucasian_female_neutral_left.jpg,99,cue_left,target_E,target_left,cue_1,200ms,correct,0.6600970509025501
mGCP-III,60,2018-01-31_16:38,1,88,99,37_Caucasian_female_neutral_left.jpg,99,cue_left,target_F,target_right,cue_1,200ms,correct,0.6117703157610777
mGCP-III,60,2018-01-31_16:38,1,89,99,37_Caucasian_female_neutral_left.jpg,99,cue_left,target_E,target_left,cue_1,200ms,correct,0.5814200815486856
mGCP-III,60,2018-01-31_16:38,1,90,99,61_Caucasian_female_neutral_right.jpg,99,cue_right,target_E,target_left,cue_1,500ms,correct,0.6384492398811972
mGCP-III,60,2018-01-31_16:38,1,91,99,26_Caucasian_female_neutral_right.jpg,99,cue_right,target_E,target_right,cue_1,500ms,correct,0.46484917129851056
mGCP-III,60,2018-01-31_16:38,1,92,99,37_Caucasian_female_neutral_right.jpg,99,cue_right,target_E,target_right,cue_1,200ms,correct,0.4938447383090079
mGCP-III,60,2018-01-31_16:38,1,93,99,61_Caucasian_female_neutral_right.jpg,99,cue_right,target_E,target_left,cue_1,200ms,correct,0.4873424147525611
mGCP-III,60,2018-01-31_16:39,1,94,99,37_Caucasian_female_neutral_right.jpg,99,cue_right,target_E,target_left,cue_1,200ms,correct,0.44042170485795396
mGCP-III,60,2018-01-31_16:39,1,95,99,61_Caucasian_female_neutral_left.jpg,99,cue_left,target_E,target_left,cue_1,200ms,correct,0.4452734598611414
mGCP-III,60,2018-01-31_16:39,1,96,99,61_Caucasian_female_neutral_right.jpg,99,cue_right,target_E,target_left,cue_1,500ms,correct,0.4136471757617528
mGCP-III,60,2018-01-31_16:39,2,97,37_Caucasian_female_neutral_right.jpg,26_Caucasian_female_neutral_right.jpg,61_Caucasian_female_neutral_right.jpg,cue_right,target_E,target_right,cue_3,500ms,correct,0.7481539745793953
mGCP-III,60,2018-01-31_16:39,2,98,37_Caucasian_female_neutral_left.jpg,26_Caucasian_female_neutral_left.jpg,61_Caucasian_female_neutral_left.jpg,cue_left,target_E,target_right,cue_3,500ms,correct,0.6276822232817949
mGCP-III,60,2018-01-31_16:39,2,99,61_Caucasian_female_neutral_left.jpg,26_Caucasian_female_neutral_left.jpg,37_Caucasian_female_neutral_left.jpg,cue_left,target_E,target_left,cue_3,500ms,correct,0.5683218047690843
mGCP-III,60,2018-01-31_16:39,2,100,26_Caucasian_female_neutral_left.jpg,61_Caucasian_female_neutral_left.jpg,37_Caucasian_female_neutral_left.jpg,cue_left,target_E,target_right,cue_3,200ms,correct,0.61647155218634
mGCP-III,60,2018-01-31_16:39,2,101,61_Caucasian_female_neutral_left.jpg,26_Caucasian_female_neutral_left.jpg,37_Caucasian_female_neutral_left.jpg,cue_left,target_E,target_right,cue_3,500ms,correct,0.670971129272516
mGCP-III,60,2018-01-31_16:39,2,102,37_Caucasian_female_neutral_left.jpg,26_Caucasian_female_neutral_left.jpg,61_Caucasian_female_neutral_left.jpg,cue_left,target_E,target_left,cue_3,500ms,correct,0.4853165374090622
mGCP-III,60,2018-01-31_16:39,2,103,37_Caucasian_female_neutral_right.jpg,26_Caucasian_female_neutral_right.jpg,61_Caucasian_female_neutral_right.jpg,cue_right,target_E,target_left,cue_3,500ms,correct,0.39236005624104564
mGCP-III,60,2018-01-31_16:39,2,104,61_Caucasian_female_neutral_left.jpg,26_Caucasian_female_neutral_left.jpg,37_Caucasian_female_neutral_left.jpg,cue_left,target_F,target_right,cue_3,200ms,incorrect,0.493406614679202
mGCP-III,60,2018-01-31_16:39,2,105,61_Caucasian_female_neutral_right.jpg,26_Caucasian_female_neutral_right.jpg,37_Caucasian_female_neutral_right.jpg,cue_right,target_E,target_left,cue_3,200ms,correct,0.6506309730887097
mGCP-III,60,2018-01-31_16:39,2,106,61_Caucasian_female_neutral_right.jpg,26_Caucasian_female_neutral_right.jpg,37_Caucasian_female_neutral_right.jpg,cue_right,target_E,target_right,cue_3,200ms,correct,0.6532079617611544
mGCP-III,60,2018-01-31_16:39,2,107,26_Caucasian_female_neutral_left.jpg,37_Caucasian_female_neutral_left.jpg,61_Caucasian_female_neutral_left.jpg,cue_left,target_E,target_left,cue_3,500ms,correct,0.516011265584666
mGCP-III,60,2018-01-31_16:39,2,108,26_Caucasian_female_neutral_left.jpg,61_Caucasian_female_neutral_left.jpg,37_Caucasian_female_neutral_left.jpg,cue_left,target_E,target_left,cue_3,500ms,correct,0.4956746649578463
mGCP-III,60,2018-01-31_16:39,2,109,26_Caucasian_female_neutral_right.jpg,37_Caucasian_female_neutral_right.jpg,61_Caucasian_female_neutral_right.jpg,cue_right,target_F,target_left,cue_3,500ms,incorrect,0.41733784388657114
mGCP-III,60,2018-01-31_16:39,2,110,61_Caucasian_female_neutral_left.jpg,37_Caucasian_female_neutral_left.jpg,26_Caucasian_female_neutral_left.jpg,cue_left,target_F,target_right,cue_3,500ms,correct,0.6230738263994908
mGCP-III,60,2018-01-31_16:39,2,111,37_Caucasian_female_neutral_right.jpg,61_Caucasian_female_neutral_right.jpg,26_Caucasian_female_neutral_right.jpg,cue_right,target_E,target_left,cue_3,200ms,correct,0.6104484386956983
mGCP-III,60,2018-01-31_16:39,2,112,61_Caucasian_female_neutral_left.jpg,26_Caucasian_female_neutral_left.jpg,37_Caucasian_female_neutral_left.jpg,cue_left,target_E,target_left,cue_3,200ms,correct,0.542886140399446
mGCP-III,60,2018-01-31_16:39,2,113,61_Caucasian_female_neutral_right.jpg,37_Caucasian_female_neutral_right.jpg,26_Caucasian_female_neutral_right.jpg,cue_right,target_F,target_right,cue_3,500ms,correct,0.39977852830759275
mGCP-III,60,2018-01-31_16:39,2,114,61_Caucasian_female_neutral_left.jpg,37_Caucasian_female_neutral_left.jpg,26_Caucasian_female_neutral_left.jpg,cue_left,target_E,target_right,cue_3,200ms,correct,0.6580964575196049
mGCP-III,60,2018-01-31_16:39,2,115,61_Caucasian_female_neutral_left.jpg,37_Caucasian_female_neutral_left.jpg,26_Caucasian_female_neutral_left.jpg,cue_left,target_F,target_left,cue_3,200ms,correct,0.7109640339610905
mGCP-III,60,2018-01-31_16:39,2,116,37_Caucasian_female_neutral_left.jpg,61_Caucasian_female_neutral_left.jpg,26_Caucasian_female_neutral_left.jpg,cue_left,target_E,target_right,cue_3,200ms,correct,0.4844537222533063
mGCP-III,60,2018-01-31_16:39,2,117,37_Caucasian_female_neutral_right.jpg,26_Caucasian_female_neutral_right.jpg,61_Caucasian_female_neutral_right.jpg,cue_right,target_F,target_left,cue_3,500ms,correct,0.5467470801963827
mGCP-III,60,2018-01-31_16:39,2,118,26_Caucasian_female_neutral_left.jpg,61_Caucasian_female_neutral_left.jpg,37_Caucasian_female_neutral_left.jpg,cue_left,target_F,target_left,cue_3,200ms,correct,0.7380475014508647
mGCP-III,60,2018-01-31_16:39,2,119,26_Caucasian_female_neutral_right.jpg,37_Caucasian_female_neutral_right.jpg,61_Caucasian_female_neutral_right.jpg,cue_right,target_F,target_right,cue_3,500ms,correct,0.4948446399386057
mGCP-III,60,2018-01-31_16:39,2,120,61_Caucasian_female_neutral_right.jpg,37_Caucasian_female_neutral_right.jpg,26_Caucasian_female_neutral_right.jpg,cue_right,target_E,target_right,cue_3,500ms,incorrect,0.3070638250128468
mGCP-III,60,2018-01-31_16:39,2,121,61_Caucasian_female_neutral_right.jpg,26_Caucasian_female_neutral_right.jpg,37_Caucasian_female_neutral_right.jpg,cue_right,target_F,target_left,cue_3,200ms,correct,0.6935524715269139
mGCP-III,60,2018-01-31_16:40,2,122,26_Caucasian_female_neutral_right.jpg,61_Caucasian_female_neutral_right.jpg,37_Caucasian_female_neutral_right.jpg,cue_right,target_E,target_left,cue_3,200ms,correct,0.6434929949601838
mGCP-III,60,2018-01-31_16:40,2,123,61_Caucasian_female_neutral_right.jpg,37_Caucasian_female_neutral_right.jpg,26_Caucasian_female_neutral_right.jpg,cue_right,target_F,target_right,cue_3,200ms,correct,0.6784330581464246
mGCP-III,60,2018-01-31_16:40,2,124,61_Caucasian_female_neutral_left.jpg,37_Caucasian_female_neutral_left.jpg,26_Caucasian_female_neutral_left.jpg,cue_left,target_E,target_right,cue_3,500ms,correct,0.6542141843808622
mGCP-III,60,2018-01-31_16:40,2,125,26_Caucasian_female_neutral_right.jpg,37_Caucasian_female_neutral_right.jpg,61_Caucasian_female_neutral_right.jpg,cue_right,target_E,target_right,cue_3,500ms,correct,0.6341628184346746
mGCP-III,60,2018-01-31_16:40,2,126,37_Caucasian_female_neutral_left.jpg,61_Caucasian_female_neutral_left.jpg,26_Caucasian_female_neutral_left.jpg,cue_left,target_E,target_left,cue_3,500ms,99,99
mGCP-III,60,2018-01-31_16:40,2,127,26_Caucasian_female_neutral_left.jpg,61_Caucasian_female_neutral_left.jpg,37_Caucasian_female_neutral_left.jpg,cue_left,target_E,target_left,cue_3,200ms,correct,0.5713211145960031
mGCP-III,60,2018-01-31_16:40,2,128,37_Caucasian_female_neutral_left.jpg,26_Caucasian_female_neutral_left.jpg,61_Caucasian_female_neutral_left.jpg,cue_left,target_E,target_left,cue_3,200ms,correct,0.44803889305239863
mGCP-III,60,2018-01-31_16:40,2,129,61_Caucasian_female_neutral_right.jpg,37_Caucasian_female_neutral_right.jpg,26_Caucasian_female_neutral_right.jpg,cue_right,target_E,target_left,cue_3,500ms,correct,0.4284296013548783
mGCP-III,60,2018-01-31_16:40,2,130,26_Caucasian_female_neutral_right.jpg,61_Caucasian_female_neutral_right.jpg,37_Caucasian_female_neutral_right.jpg,cue_right,target_F,target_left,cue_3,500ms,incorrect,0.4068335434403707
mGCP-III,60,2018-01-31_16:40,2,131,26_Caucasian_female_neutral_right.jpg,61_Caucasian_female_neutral_right.jpg,37_Caucasian_female_neutral_right.jpg,cue_right,target_E,target_right,cue_3,200ms,correct,0.6212589121022347
mGCP-III,60,2018-01-31_16:40,2,132,37_Caucasian_female_neutral_right.jpg,26_Caucasian_female_neutral_right.jpg,61_Caucasian_female_neutral_right.jpg,cue_right,target_E,target_left,cue_3,200ms,correct,0.526594578407753
mGCP-III,60,2018-01-31_16:40,2,133,61_Caucasian_female_neutral_right.jpg,26_Caucasian_female_neutral_right.jpg,37_Caucasian_female_neutral_right.jpg,cue_right,target_F,target_left,cue_3,500ms,correct,0.5489558711924474
mGCP-III,60,2018-01-31_16:40,2,134,26_Caucasian_female_neutral_right.jpg,37_Caucasian_female_neutral_right.jpg,61_Caucasian_female_neutral_right.jpg,cue_right,target_F,target_right,cue_3,200ms,correct,0.6256306669158676
mGCP-III,60,2018-01-31_16:40,2,135,61_Caucasian_female_neutral_left.jpg,37_Caucasian_female_neutral_left.jpg,26_Caucasian_female_neutral_left.jpg,cue_left,target_E,target_left,cue_3,500ms,correct,0.5642538525446525
mGCP-III,60,2018-01-31_16:40,2,136,26_Caucasian_female_neutral_left.jpg,37_Caucasian_female_neutral_left.jpg,61_Caucasian_female_neutral_left.jpg,cue_left,target_F,target_left,cue_3,500ms,correct,0.7146045292264489
mGCP-III,60,2018-01-31_16:40,2,137,26_Caucasian_female_neutral_left.jpg,61_Caucasian_female_neutral_left.jpg,37_Caucasian_female_neutral_left.jpg,cue_left,target_F,target_right,cue_3,500ms,correct,0.6067794989746744
mGCP-III,60,2018-01-31_16:40,2,138,26_Caucasian_female_neutral_right.jpg,61_Caucasian_female_neutral_right.jpg,37_Caucasian_female_neutral_right.jpg,cue_right,target_F,target_right,cue_3,500ms,correct,0.3897111663056876
mGCP-III,60,2018-01-31_16:40,2,139,61_Caucasian_female_neutral_right.jpg,37_Caucasian_female_neutral_right.jpg,26_Caucasian_female_neutral_right.jpg,cue_right,target_F,target_left,cue_3,200ms,correct,0.5612928637206096
mGCP-III,60,2018-01-31_16:40,2,140,37_Caucasian_female_neutral_right.jpg,61_Caucasian_female_neutral_right.jpg,26_Caucasian_female_neutral_right.jpg,cue_right,target_F,target_right,cue_3,200ms,correct,0.5219624778123944
mGCP-III,60,2018-01-31_16:40,2,141,26_Caucasian_female_neutral_left.jpg,37_Caucasian_female_neutral_left.jpg,61_Caucasian_female_neutral_left.jpg,cue_left,target_F,target_left,cue_3,200ms,correct,0.6120357973475166
mGCP-III,60,2018-01-31_16:40,2,142,37_Caucasian_female_neutral_left.jpg,61_Caucasian_female_neutral_left.jpg,26_Caucasian_female_neutral_left.jpg,cue_left,target_F,target_right,cue_3,500ms,correct,0.5337530997542217
mGCP-III,60,2018-01-31_16:40,2,143,61_Caucasian_female_neutral_left.jpg,37_Caucasian_female_neutral_left.jpg,26_Caucasian_female_neutral_left.jpg,cue_left,target_F,target_right,cue_3,200ms,correct,0.4929001453433557
mGCP-III,60,2018-01-31_16:40,2,144,61_Caucasian_female_neutral_left.jpg,26_Caucasian_female_neutral_left.jpg,37_Caucasian_female_neutral_left.jpg,cue_left,target_E,target_right,cue_3,200ms,correct,0.5604237275747437
mGCP-III,60,2018-01-31_16:40,2,145,37_Caucasian_female_neutral_right.jpg,61_Caucasian_female_neutral_right.jpg,26_Caucasian_female_neutral_right.jpg,cue_right,target_E,target_left,cue_3,500ms,correct,0.5252817877656071
mGCP-III,60,2018-01-31_16:40,2,146,37_Caucasian_female_neutral_right.jpg,61_Caucasian_female_neutral_right.jpg,26_Caucasian_female_neutral_right.jpg,cue_right,target_F,target_left,cue_3,200ms,correct,0.6339937319480669
mGCP-III,60,2018-01-31_16:40,2,147,26_Caucasian_female_neutral_left.jpg,61_Caucasian_female_neutral_left.jpg,37_Caucasian_female_neutral_left.jpg,cue_left,target_F,target_left,cue_3,500ms,correct,0.5565418494979895
mGCP-III,60,2018-01-31_16:40,2,148,37_Caucasian_female_neutral_right.jpg,26_Caucasian_female_neutral_right.jpg,61_Caucasian_female_neutral_right.jpg,cue_right,target_F,target_right,cue_3,500ms,correct,0.5962064577604451
mGCP-III,60,2018-01-31_16:40,2,149,61_Caucasian_female_neutral_left.jpg,37_Caucasian_female_neutral_left.jpg,26_Caucasian_female_neutral_left.jpg,cue_left,target_F,target_left,cue_3,500ms,correct,0.5175105254363643
mGCP-III,60,2018-01-31_16:40,2,150,26_Caucasian_female_neutral_right.jpg,61_Caucasian_female_neutral_right.jpg,37_Caucasian_female_neutral_right.jpg,cue_right,target_E,target_right,cue_3,500ms,correct,0.5266151216258095
mGCP-III,60,2018-01-31_16:40,2,151,26_Caucasian_female_neutral_right.jpg,61_Caucasian_female_neutral_right.jpg,37_Caucasian_female_neutral_right.jpg,cue_right,target_F,target_right,cue_3,200ms,correct,0.6879402223960369
mGCP-III,60,2018-01-31_16:41,2,152,26_Caucasian_female_neutral_right.jpg,37_Caucasian_female_neutral_right.jpg,61_Caucasian_female_neutral_right.jpg,cue_right,target_E,target_right,cue_3,200ms,correct,0.5567030347467607
mGCP-III,60,2018-01-31_16:41,2,153,37_Caucasian_female_neutral_left.jpg,61_Caucasian_female_neutral_left.jpg,26_Caucasian_female_neutral_left.jpg,cue_left,target_F,target_right,cue_3,200ms,correct,0.6133576744127822
mGCP-III,60,2018-01-31_16:41,2,154,26_Caucasian_female_neutral_right.jpg,37_Caucasian_female_neutral_right.jpg,61_Caucasian_female_neutral_right.jpg,cue_right,target_E,target_left,cue_3,500ms,correct,0.48852720534409855
mGCP-III,60,2018-01-31_16:41,2,155,26_Caucasian_female_neutral_left.jpg,61_Caucasian_female_neutral_left.jpg,37_Caucasian_female_neutral_left.jpg,cue_left,target_E,target_right,cue_3,500ms,correct,0.7414391077290929
mGCP-III,60,2018-01-31_16:41,2,156,26_Caucasian_female_neutral_left.jpg,61_Caucasian_female_neutral_left.jpg,37_Caucasian_female_neutral_left.jpg,cue_left,target_F,target_right,cue_3,200ms,correct,0.6261924449156595
mGCP-III,60,2018-01-31_16:41,2,157,37_Caucasian_female_neutral_left.jpg,26_Caucasian_female_neutral_left.jpg,61_Caucasian_female_neutral_left.jpg,cue_left,target_F,target_left,cue_3,500ms,correct,0.5803565749556583
mGCP-III,60,2018-01-31_16:41,2,158,37_Caucasian_female_neutral_right.jpg,61_Caucasian_female_neutral_right.jpg,26_Caucasian_female_neutral_right.jpg,cue_right,target_F,target_left,cue_3,500ms,correct,0.5312006049186948
mGCP-III,60,2018-01-31_16:41,2,159,61_Caucasian_female_neutral_left.jpg,37_Caucasian_female_neutral_left.jpg,26_Caucasian_female_neutral_left.jpg,cue_left,target_E,target_left,cue_3,200ms,correct,0.563888815363498
mGCP-III,60,2018-01-31_16:41,2,160,37_Caucasian_female_neutral_left.jpg,26_Caucasian_female_neutral_left.jpg,61_Caucasian_female_neutral_left.jpg,cue_left,target_F,target_left,cue_3,200ms,correct,0.6167394041440275
mGCP-III,60,2018-01-31_16:41,2,161,37_Caucasian_female_neutral_right.jpg,26_Caucasian_female_neutral_right.jpg,61_Caucasian_female_neutral_right.jpg,cue_right,target_F,target_left,cue_3,200ms,correct,0.6001444346250082
mGCP-III,60,2018-01-31_16:41,2,162,37_Caucasian_female_neutral_right.jpg,61_Caucasian_female_neutral_right.jpg,26_Caucasian_female_neutral_right.jpg,cue_right,target_E,target_right,cue_3,200ms,correct,0.579349957273962
mGCP-III,60,2018-01-31_16:41,2,163,61_Caucasian_female_neutral_right.jpg,26_Caucasian_female_neutral_right.jpg,37_Caucasian_female_neutral_right.jpg,cue_right,target_F,target_right,cue_3,500ms,correct,0.5676525699366266
mGCP-III,60,2018-01-31_16:41,2,164,26_Caucasian_female_neutral_right.jpg,61_Caucasian_female_neutral_right.jpg,37_Caucasian_female_neutral_right.jpg,cue_right,target_E,target_left,cue_3,500ms,correct,0.6263627165878916
mGCP-III,60,2018-01-31_16:41,2,165,26_Caucasian_female_neutral_left.jpg,37_Caucasian_female_neutral_left.jpg,61_Caucasian_female_neutral_left.jpg,cue_left,target_E,target_right,cue_3,200ms,correct,0.6371506714669977
mGCP-III,60,2018-01-31_16:41,2,166,26_Caucasian_female_neutral_left.jpg,37_Caucasian_female_neutral_left.jpg,61_Caucasian_female_neutral_left.jpg,cue_left,target_E,target_left,cue_3,200ms,correct,0.4953179240762893
mGCP-III,60,2018-01-31_16:41,2,167,26_Caucasian_female_neutral_left.jpg,37_Caucasian_female_neutral_left.jpg,61_Caucasian_female_neutral_left.jpg,cue_left,target_F,target_right,cue_3,500ms,correct,0.5423488562366856
mGCP-III,60,2018-01-31_16:41,2,168,61_Caucasian_female_neutral_right.jpg,37_Caucasian_female_neutral_right.jpg,26_Caucasian_female_neutral_right.jpg,cue_right,target_E,target_left,cue_3,200ms,correct,0.5421833253069508
mGCP-III,60,2018-01-31_16:41,2,169,37_Caucasian_female_neutral_left.jpg,26_Caucasian_female_neutral_left.jpg,61_Caucasian_female_neutral_left.jpg,cue_left,target_F,target_right,cue_3,200ms,correct,0.5789398830381742
mGCP-III,60,2018-01-31_16:41,2,170,26_Caucasian_female_neutral_right.jpg,61_Caucasian_female_neutral_right.jpg,37_Caucasian_female_neutral_right.jpg,cue_right,target_F,target_left,cue_3,200ms,99,99
mGCP-III,60,2018-01-31_16:41,2,171,37_Caucasian_female_neutral_left.jpg,61_Caucasian_female_neutral_left.jpg,26_Caucasian_female_neutral_left.jpg,cue_left,target_F,target_left,cue_3,500ms,correct,0.6666293991622751
mGCP-III,60,2018-01-31_16:41,2,172,61_Caucasian_female_neutral_right.jpg,26_Caucasian_female_neutral_right.jpg,37_Caucasian_female_neutral_right.jpg,cue_right,target_E,target_left,cue_3,500ms,correct,0.5650297540857991
mGCP-III,60,2018-01-31_16:41,2,173,37_Caucasian_female_neutral_left.jpg,61_Caucasian_female_neutral_left.jpg,26_Caucasian_female_neutral_left.jpg,cue_left,target_F,target_left,cue_3,200ms,correct,0.5865495650566572
mGCP-III,60,2018-01-31_16:41,2,174,61_Caucasian_female_neutral_left.jpg,26_Caucasian_female_neutral_left.jpg,37_Caucasian_female_neutral_left.jpg,cue_left,target_F,target_right,cue_3,500ms,correct,0.6316782742433134
mGCP-III,60,2018-01-31_16:41,2,175,37_Caucasian_female_neutral_right.jpg,61_Caucasian_female_neutral_right.jpg,26_Caucasian_female_neutral_right.jpg,cue_right,target_F,target_right,cue_3,500ms,correct,0.3675130340791384
mGCP-III,60,2018-01-31_16:41,2,176,37_Caucasian_female_neutral_right.jpg,26_Caucasian_female_neutral_right.jpg,61_Caucasian_female_neutral_right.jpg,cue_right,target_E,target_right,cue_3,200ms,correct,0.5872638369437482
mGCP-III,60,2018-01-31_16:41,2,177,37_Caucasian_female_neutral_right.jpg,61_Caucasian_female_neutral_right.jpg,26_Caucasian_female_neutral_right.jpg,cue_right,target_E,target_right,cue_3,500ms,correct,0.4835766848698313
mGCP-III,60,2018-01-31_16:41,2,178,37_Caucasian_female_neutral_left.jpg,26_Caucasian_female_neutral_left.jpg,61_Caucasian_female_neutral_left.jpg,cue_left,target_E,target_right,cue_3,200ms,correct,0.5009052843081463
mGCP-III,60,2018-01-31_16:41,2,179,26_Caucasian_female_neutral_left.jpg,37_Caucasian_female_neutral_left.jpg,61_Caucasian_female_neutral_left.jpg,cue_left,target_F,target_right,cue_3,200ms,correct,0.5735152883023602
mGCP-III,60,2018-01-31_16:41,2,180,37_Caucasian_female_neutral_left.jpg,61_Caucasian_female_neutral_left.jpg,26_Caucasian_female_neutral_left.jpg,cue_left,target_E,target_right,cue_3,500ms,correct,0.5837343540677011
mGCP-III,60,2018-01-31_16:41,2,181,37_Caucasian_female_neutral_left.jpg,61_Caucasian_female_neutral_left.jpg,26_Caucasian_female_neutral_left.jpg,cue_left,target_E,target_left,cue_3,200ms,correct,0.7199888276497859
mGCP-III,60,2018-01-31_16:42,2,182,37_Caucasian_female_neutral_left.jpg,26_Caucasian_female_neutral_left.jpg,61_Caucasian_female_neutral_left.jpg,cue_left,target_F,target_right,cue_3,500ms,correct,0.5170629203212229
mGCP-III,60,2018-01-31_16:42,2,183,37_Caucasian_female_neutral_right.jpg,26_Caucasian_female_neutral_right.jpg,61_Caucasian_female_neutral_right.jpg,cue_right,target_F,target_right,cue_3,200ms,99,99
mGCP-III,60,2018-01-31_16:42,2,184,26_Caucasian_female_neutral_right.jpg,37_Caucasian_female_neutral_right.jpg,61_Caucasian_female_neutral_right.jpg,cue_right,target_F,target_left,cue_3,200ms,incorrect,0.47587455837015114
mGCP-III,60,2018-01-31_16:42,2,185,61_Caucasian_female_neutral_left.jpg,26_Caucasian_female_neutral_left.jpg,37_Caucasian_female_neutral_left.jpg,cue_left,target_F,target_left,cue_3,200ms,correct,0.6356984239796475
mGCP-III,60,2018-01-31_16:42,2,186,61_Caucasian_female_neutral_left.jpg,26_Caucasian_female_neutral_left.jpg,37_Caucasian_female_neutral_left.jpg,cue_left,target_F,target_left,cue_3,500ms,correct,0.6098586113021156
mGCP-III,60,2018-01-31_16:42,2,187,61_Caucasian_female_neutral_right.jpg,37_Caucasian_female_neutral_right.jpg,26_Caucasian_female_neutral_right.jpg,cue_right,target_E,target_right,cue_3,200ms,correct,0.6965936579135814
mGCP-III,60,2018-01-31_16:42,2,188,26_Caucasian_female_neutral_left.jpg,37_Caucasian_female_neutral_left.jpg,61_Caucasian_female_neutral_left.jpg,cue_left,target_E,target_right,cue_3,500ms,correct,0.5539344410606191
mGCP-III,60,2018-01-31_16:42,2,189,61_Caucasian_female_neutral_right.jpg,26_Caucasian_female_neutral_right.jpg,37_Caucasian_female_neutral_right.jpg,cue_right,target_E,target_right,cue_3,500ms,correct,0.6787451570351095
mGCP-III,60,2018-01-31_16:42,2,190,26_Caucasian_female_neutral_right.jpg,37_Caucasian_female_neutral_right.jpg,61_Caucasian_female_neutral_right.jpg,cue_right,target_E,target_left,cue_3,200ms,correct,0.4598097619002601
mGCP-III,60,2018-01-31_16:42,2,191,61_Caucasian_female_neutral_right.jpg,26_Caucasian_female_neutral_right.jpg,37_Caucasian_female_neutral_right.jpg,cue_right,target_F,target_right,cue_3,200ms,correct,0.5135437090541473
mGCP-III,60,2018-01-31_16:42,2,192,61_Caucasian_female_neutral_right.jpg,37_Caucasian_female_neutral_right.jpg,26_Caucasian_female_neutral_right.jpg,cue_right,target_F,target_left,cue_3,500ms,correct,0.5602736040586933
mGCP-III,60,2018-01-31_16:42,3,193,99,26_Caucasian_female_neutral_left.jpg,99,cue_left,target_F,target_right,cue_1,500ms,correct,0.5168420807276561
mGCP-III,60,2018-01-31_16:42,3,194,99,61_Caucasian_female_neutral_left.jpg,99,cue_left,target_E,target_right,cue_1,500ms,correct,0.5175670192859343
mGCP-III,60,2018-01-31_16:42,3,195,99,61_Caucasian_female_neutral_left.jpg,99,cue_left,target_F,target_left,cue_1,500ms,correct,0.6507901830282208
mGCP-III,60,2018-01-31_16:42,3,196,99,26_Caucasian_female_neutral_right.jpg,99,cue_right,target_E,target_right,cue_1,500ms,correct,0.5544586881812847
mGCP-III,60,2018-01-31_16:42,3,197,99,37_Caucasian_female_neutral_left.jpg,99,cue_left,target_F,target_right,cue_1,200ms,correct,0.6935718295594597
mGCP-III,60,2018-01-31_16:42,3,198,99,26_Caucasian_female_neutral_left.jpg,99,cue_left,target_F,target_left,cue_1,500ms,correct,0.655318382348014
mGCP-III,60,2018-01-31_16:42,3,199,99,26_Caucasian_female_neutral_left.jpg,99,cue_left,target_F,target_left,cue_1,200ms,correct,0.47564186692034127
mGCP-III,60,2018-01-31_16:42,3,200,99,37_Caucasian_female_neutral_left.jpg,99,cue_left,target_E,target_right,cue_1,500ms,correct,0.5585250601579901
mGCP-III,60,2018-01-31_16:42,3,201,99,37_Caucasian_female_neutral_right.jpg,99,cue_right,target_F,target_right,cue_1,200ms,correct,0.5695836324280208
mGCP-III,60,2018-01-31_16:42,3,202,99,61_Caucasian_female_neutral_right.jpg,99,cue_right,target_E,target_left,cue_1,200ms,correct,0.6646536946780088
mGCP-III,60,2018-01-31_16:42,3,203,99,37_Caucasian_female_neutral_right.jpg,99,cue_right,target_E,target_right,cue_1,500ms,incorrect,0.3866450910202275
mGCP-III,60,2018-01-31_16:42,3,204,99,37_Caucasian_female_neutral_left.jpg,99,cue_left,target_F,target_right,cue_1,500ms,correct,0.4080290007027543
mGCP-III,60,2018-01-31_16:42,3,205,99,37_Caucasian_female_neutral_right.jpg,99,cue_right,target_E,target_right,cue_1,500ms,correct,0.46288571373270315
mGCP-III,60,2018-01-31_16:42,3,206,99,37_Caucasian_female_neutral_left.jpg,99,cue_left,target_F,target_left,cue_1,500ms,correct,0.5624148394724671
mGCP-III,60,2018-01-31_16:42,3,207,99,61_Caucasian_female_neutral_right.jpg,99,cue_right,target_F,target_left,cue_1,500ms,correct,0.6190517013537828
mGCP-III,60,2018-01-31_16:43,3,208,99,26_Caucasian_female_neutral_right.jpg,99,cue_right,target_F,target_right,cue_1,500ms,correct,0.5539261447609078
mGCP-III,60,2018-01-31_16:43,3,209,99,37_Caucasian_female_neutral_left.jpg,99,cue_left,target_E,target_right,cue_1,500ms,correct,0.5330712229417713
mGCP-III,60,2018-01-31_16:43,3,210,99,61_Caucasian_female_neutral_right.jpg,99,cue_right,target_F,target_left,cue_1,200ms,correct,0.5755624989876651
mGCP-III,60,2018-01-31_16:43,3,211,99,61_Caucasian_female_neutral_left.jpg,99,cue_left,target_E,target_left,cue_1,200ms,correct,0.5264160104359235
mGCP-III,60,2018-01-31_16:43,3,212,99,61_Caucasian_female_neutral_left.jpg,99,cue_left,target_E,target_right,cue_1,200ms,correct,0.5634222472779129
mGCP-III,60,2018-01-31_16:43,3,213,99,26_Caucasian_female_neutral_left.jpg,99,cue_left,target_E,target_left,cue_1,500ms,correct,0.5052126440346001
mGCP-III,60,2018-01-31_16:43,3,214,99,61_Caucasian_female_neutral_right.jpg,99,cue_right,target_F,target_right,cue_1,200ms,correct,0.604658806778616
mGCP-III,60,2018-01-31_16:43,3,215,99,37_Caucasian_female_neutral_right.jpg,99,cue_right,target_E,target_right,cue_1,200ms,correct,0.6404419320265333
mGCP-III,60,2018-01-31_16:43,3,216,99,26_Caucasian_female_neutral_left.jpg,99,cue_left,target_E,target_right,cue_1,200ms,correct,0.4696914448163625
mGCP-III,60,2018-01-31_16:43,3,217,99,26_Caucasian_female_neutral_left.jpg,99,cue_left,target_E,target_right,cue_1,500ms,correct,0.3979628238864734
mGCP-III,60,2018-01-31_16:43,3,218,99,26_Caucasian_female_neutral_right.jpg,99,cue_right,target_E,target_right,cue_1,200ms,correct,0.40761379066225345
mGCP-III,60,2018-01-31_16:43,3,219,99,37_Caucasian_female_neutral_right.jpg,99,cue_right,target_F,target_left,cue_1,500ms,correct,0.5044343721222049
mGCP-III,60,2018-01-31_16:43,3,220,99,26_Caucasian_female_neutral_right.jpg,99,cue_right,target_F,target_right,cue_1,500ms,correct,0.3480574214549961
mGCP-III,60,2018-01-31_16:43,3,221,99,37_Caucasian_female_neutral_left.jpg,99,cue_left,target_E,target_left,cue_1,500ms,correct,0.4599650212207962
mGCP-III,60,2018-01-31_16:43,3,222,99,61_Caucasian_female_neutral_left.jpg,99,cue_left,target_E,target_left,cue_1,500ms,correct,0.5535749347457113
mGCP-III,60,2018-01-31_16:43,3,223,99,26_Caucasian_female_neutral_right.jpg,99,cue_right,target_F,target_right,cue_1,200ms,correct,0.507626472148786
mGCP-III,60,2018-01-31_16:43,3,224,99,61_Caucasian_female_neutral_left.jpg,99,cue_left,target_F,target_right,cue_1,500ms,incorrect,0.7981095498703326
mGCP-III,60,2018-01-31_16:43,3,225,99,26_Caucasian_female_neutral_right.jpg,99,cue_right,target_E,target_left,cue_1,500ms,correct,0.5295156659815348
mGCP-III,60,2018-01-31_16:43,3,226,99,37_Caucasian_female_neutral_right.jpg,99,cue_right,target_F,target_right,cue_1,500ms,correct,0.40221724532034386
mGCP-III,60,2018-01-31_16:43,3,227,99,26_Caucasian_female_neutral_left.jpg,99,cue_left,target_E,target_left,cue_1,200ms,correct,0.538386385535432
mGCP-III,60,2018-01-31_16:43,3,228,99,26_Caucasian_female_neutral_right.jpg,99,cue_right,target_F,target_left,cue_1,500ms,incorrect,0.5252968001173031
mGCP-III,60,2018-01-31_16:43,3,229,99,37_Caucasian_female_neutral_left.jpg,99,cue_left,target_E,target_left,cue_1,500ms,incorrect,0.6349414854089446
mGCP-III,60,2018-01-31_16:43,3,230,99,61_Caucasian_female_neutral_right.jpg,99,cue_right,target_F,target_right,cue_1,500ms,correct,0.6365450415980831
mGCP-III,60,2018-01-31_16:43,3,231,99,26_Caucasian_female_neutral_left.jpg,99,cue_left,target_F,target_left,cue_1,500ms,correct,0.5654271863415943
mGCP-III,60,2018-01-31_16:43,3,232,99,61_Caucasian_female_neutral_right.jpg,99,cue_right,target_E,target_right,cue_1,500ms,correct,0.6438560568319645
mGCP-III,60,2018-01-31_16:43,3,233,99,26_Caucasian_female_neutral_left.jpg,99,cue_left,target_E,target_right,cue_1,500ms,correct,0.637904054480714
mGCP-III,60,2018-01-31_16:43,3,234,99,26_Caucasian_female_neutral_right.jpg,99,cue_right,target_E,target_right,cue_1,500ms,correct,0.579465710406339
mGCP-III,60,2018-01-31_16:43,3,235,99,37_Caucasian_female_neutral_left.jpg,99,cue_left,target_E,target_right,cue_1,200ms,correct,0.4542089695639788
mGCP-III,60,2018-01-31_16:43,3,236,99,26_Caucasian_female_neutral_left.jpg,99,cue_left,target_F,target_right,cue_1,200ms,correct,0.64502504494817
mGCP-III,60,2018-01-31_16:43,3,237,99,61_Caucasian_female_neutral_left.jpg,99,cue_left,target_E,target_left,cue_1,200ms,correct,0.7092127246273776
mGCP-III,60,2018-01-31_16:43,3,238,99,37_Caucasian_female_neutral_left.jpg,99,cue_left,target_E,target_left,cue_1,200ms,correct,0.6457231192980544
mGCP-III,60,2018-01-31_16:44,3,239,99,37_Caucasian_female_neutral_left.jpg,99,cue_left,target_F,target_right,cue_1,200ms,correct,0.603481522363154
mGCP-III,60,2018-01-31_16:44,3,240,99,61_Caucasian_female_neutral_right.jpg,99,cue_right,target_F,target_right,cue_1,200ms,correct,0.5046848413571752
mGCP-III,60,2018-01-31_16:44,3,241,99,37_Caucasian_female_neutral_right.jpg,99,cue_right,target_F,target_left,cue_1,200ms,correct,0.6028727319990139
mGCP-III,60,2018-01-31_16:44,3,242,99,61_Caucasian_female_neutral_right.jpg,99,cue_right,target_F,target_right,cue_1,500ms,correct,0.41143127365171495
mGCP-III,60,2018-01-31_16:44,3,243,99,26_Caucasian_female_neutral_left.jpg,99,cue_left,target_F,target_right,cue_1,500ms,correct,0.4233210561267242
mGCP-III,60,2018-01-31_16:44,3,244,99,61_Caucasian_female_neutral_left.jpg,99,cue_left,target_F,target_right,cue_1,500ms,correct,0.44625360839631867
mGCP-III,60,2018-01-31_16:44,3,245,99,26_Caucasian_female_neutral_right.jpg,99,cue_right,target_F,target_left,cue_1,200ms,correct,0.4722909520160101
mGCP-III,60,2018-01-31_16:44,3,246,99,37_Caucasian_female_neutral_right.jpg,99,cue_right,target_E,target_left,cue_1,500ms,correct,0.5905914431964447
mGCP-III,60,2018-01-31_16:44,3,247,99,37_Caucasian_female_neutral_left.jpg,99,cue_left,target_E,target_left,cue_1,200ms,correct,0.4492446219237536
mGCP-III,60,2018-01-31_16:44,3,248,99,61_Caucasian_female_neutral_right.jpg,99,cue_right,target_F,target_left,cue_1,200ms,correct,0.6521602576435725
mGCP-III,60,2018-01-31_16:44,3,249,99,61_Caucasian_female_neutral_left.jpg,99,cue_left,target_E,target_left,cue_1,500ms,correct,0.5142915612013894
mGCP-III,60,2018-01-31_16:44,3,250,99,26_Caucasian_female_neutral_right.jpg,99,cue_right,target_F,target_left,cue_1,500ms,correct,0.7217946555238086
mGCP-III,60,2018-01-31_16:44,3,251,99,61_Caucasian_female_neutral_left.jpg,99,cue_left,target_F,target_left,cue_1,500ms,correct,0.6809792319918415
mGCP-III,60,2018-01-31_16:44,3,252,99,61_Caucasian_female_neutral_left.jpg,99,cue_left,target_E,target_right,cue_1,200ms,correct,0.587605960535484
mGCP-III,60,2018-01-31_16:44,3,253,99,37_Caucasian_female_neutral_right.jpg,99,cue_right,target_F,target_right,cue_1,500ms,correct,0.6470347247543486
mGCP-III,60,2018-01-31_16:44,3,254,99,61_Caucasian_female_neutral_right.jpg,99,cue_right,target_F,target_left,cue_1,500ms,correct,0.5582256032496389
mGCP-III,60,2018-01-31_16:44,3,255,99,26_Caucasian_female_neutral_left.jpg,99,cue_left,target_F,target_right,cue_1,200ms,correct,0.5587869861874424
mGCP-III,60,2018-01-31_16:44,3,256,99,26_Caucasian_female_neutral_right.jpg,99,cue_right,target_F,target_right,cue_1,200ms,correct,0.4857499202962572
mGCP-III,60,2018-01-31_16:44,3,257,99,61_Caucasian_female_neutral_left.jpg,99,cue_left,target_F,target_left,cue_1,200ms,correct,0.5019766921388964
mGCP-III,60,2018-01-31_16:44,3,258,99,37_Caucasian_female_neutral_right.jpg,99,cue_right,target_F,target_left,cue_1,200ms,correct,0.40780065493368056
mGCP-III,60,2018-01-31_16:44,3,259,99,37_Caucasian_female_neutral_left.jpg,99,cue_left,target_F,target_left,cue_1,500ms,correct,0.4150705837316764
mGCP-III,60,2018-01-31_16:44,3,260,99,26_Caucasian_female_neutral_right.jpg,99,cue_right,target_F,target_left,cue_1,200ms,correct,0.4512866968045728
mGCP-III,60,2018-01-31_16:44,3,261,99,61_Caucasian_female_neutral_left.jpg,99,cue_left,target_F,target_right,cue_1,200ms,correct,0.46944887681934233
mGCP-III,60,2018-01-31_16:44,3,262,99,37_Caucasian_female_neutral_left.jpg,99,cue_left,target_F,target_left,cue_1,200ms,correct,0.4716481863301851
mGCP-III,60,2018-01-31_16:44,3,263,99,37_Caucasian_female_neutral_right.jpg,99,cue_right,target_E,target_right,cue_1,200ms,correct,0.586258799509551
mGCP-III,60,2018-01-31_16:44,3,264,99,61_Caucasian_female_neutral_right.jpg,99,cue_right,target_E,target_left,cue_1,500ms,correct,0.6056804368120083
mGCP-III,60,2018-01-31_16:44,3,265,99,26_Caucasian_female_neutral_right.jpg,99,cue_right,target_E,target_right,cue_1,200ms,correct,0.5434273751811816
mGCP-III,60,2018-01-31_16:44,3,266,99,61_Caucasian_female_neutral_left.jpg,99,cue_left,target_F,target_right,cue_1,200ms,correct,0.6130874520838461
mGCP-III,60,2018-01-31_16:44,3,267,99,26_Caucasian_female_neutral_left.jpg,99,cue_left,target_E,target_right,cue_1,200ms,correct,0.5874629481336342
mGCP-III,60,2018-01-31_16:44,3,268,99,37_Caucasian_female_neutral_right.jpg,99,cue_right,target_E,target_left,cue_1,200ms,correct,0.6523163070878581
mGCP-III,60,2018-01-31_16:44,3,269,99,37_Caucasian_female_neutral_right.jpg,99,cue_right,target_E,target_left,cue_1,200ms,correct,0.4427928662885279
mGCP-III,60,2018-01-31_16:45,3,270,99,26_Caucasian_female_neutral_left.jpg,99,cue_left,target_E,target_left,cue_1,500ms,correct,0.39750968790508523
mGCP-III,60,2018-01-31_16:45,3,271,99,26_Caucasian_female_neutral_right.jpg,99,cue_right,target_E,target_left,cue_1,200ms,correct,0.45554585898116784
mGCP-III,60,2018-01-31_16:45,3,272,99,26_Caucasian_female_neutral_left.jpg,99,cue_left,target_E,target_left,cue_1,200ms,correct,0.4241016984105954
mGCP-III,60,2018-01-31_16:45,3,273,99,37_Caucasian_female_neutral_left.jpg,99,cue_left,target_F,target_left,cue_1,200ms,correct,0.6235945179632836
mGCP-III,60,2018-01-31_16:45,3,274,99,61_Caucasian_female_neutral_right.jpg,99,cue_right,target_E,target_right,cue_1,200ms,correct,0.797321401410727
mGCP-III,60,2018-01-31_16:45,3,275,99,26_Caucasian_female_neutral_left.jpg,99,cue_left,target_F,target_left,cue_1,200ms,correct,0.6228648386627356
mGCP-III,60,2018-01-31_16:45,3,276,99,61_Caucasian_female_neutral_right.jpg,99,cue_right,target_E,target_right,cue_1,200ms,correct,0.756310817307849
mGCP-III,60,2018-01-31_16:45,3,277,99,37_Caucasian_female_neutral_left.jpg,99,cue_left,target_F,target_right,cue_1,500ms,correct,0.5599441224469501
mGCP-III,60,2018-01-31_16:45,3,278,99,61_Caucasian_female_neutral_left.jpg,99,cue_left,target_F,target_left,cue_1,200ms,correct,0.5159535865495855
mGCP-III,60,2018-01-31_16:45,3,279,99,37_Caucasian_female_neutral_left.jpg,99,cue_left,target_E,target_right,cue_1,200ms,correct,0.5991228045916159
mGCP-III,60,2018-01-31_16:45,3,280,99,26_Caucasian_female_neutral_right.jpg,99,cue_right,target_E,target_left,cue_1,200ms,correct,0.6754001680594683
mGCP-III,60,2018-01-31_16:45,3,281,99,61_Caucasian_female_neutral_left.jpg,99,cue_left,target_E,target_right,cue_1,500ms,correct,0.4786289298288011
mGCP-III,60,2018-01-31_16:45,3,282,99,61_Caucasian_female_neutral_right.jpg,99,cue_right,target_E,target_left,cue_1,200ms,correct,0.6162973298951329
mGCP-III,60,2018-01-31_16:45,3,283,99,61_Caucasian_female_neutral_right.jpg,99,cue_right,target_E,target_right,cue_1,500ms,correct,0.3795940265063109
mGCP-III,60,2018-01-31_16:45,3,284,99,37_Caucasian_female_neutral_right.jpg,99,cue_right,target_E,target_left,cue_1,500ms,correct,0.36167125399356337
mGCP-III,60,2018-01-31_16:45,3,285,99,37_Caucasian_female_neutral_right.jpg,99,cue_right,target_F,target_left,cue_1,500ms,correct,0.5679105453473312
mGCP-III,60,2018-01-31_16:45,3,286,99,37_Caucasian_female_neutral_right.jpg,99,cue_right,target_F,target_right,cue_1,200ms,correct,0.6059660665544016
mGCP-III,60,2018-01-31_16:45,3,287,99,26_Caucasian_female_neutral_right.jpg,99,cue_right,target_E,target_left,cue_1,500ms,correct,0.7375268098869583
mGCP-III,60,2018-01-31_16:45,3,288,99,61_Caucasian_female_neutral_right.jpg,99,cue_right,target_E,target_left,cue_1,500ms,correct,0.45550595773079294
mGCP-III,60,2018-01-31_16:45,4,289,26_Caucasian_female_neutral_right.jpg,61_Caucasian_female_neutral_right.jpg,37_Caucasian_female_neutral_right.jpg,cue_right,target_F,target_right,cue_3,500ms,correct,0.6162767866774175
mGCP-III,60,2018-01-31_16:45,4,290,37_Caucasian_female_neutral_left.jpg,26_Caucasian_female_neutral_left.jpg,61_Caucasian_female_neutral_left.jpg,cue_left,target_F,target_left,cue_3,200ms,correct,0.5774659071469159
mGCP-III,60,2018-01-31_16:45,4,291,26_Caucasian_female_neutral_right.jpg,61_Caucasian_female_neutral_right.jpg,37_Caucasian_female_neutral_right.jpg,cue_right,target_F,target_left,cue_3,500ms,correct,0.4157816951235418
mGCP-III,60,2018-01-31_16:45,4,292,37_Caucasian_female_neutral_left.jpg,61_Caucasian_female_neutral_left.jpg,26_Caucasian_female_neutral_left.jpg,cue_left,target_F,target_left,cue_3,500ms,correct,0.395171316610913
mGCP-III,60,2018-01-31_16:45,4,293,61_Caucasian_female_neutral_left.jpg,26_Caucasian_female_neutral_left.jpg,37_Caucasian_female_neutral_left.jpg,cue_left,target_F,target_left,cue_3,500ms,correct,0.3635015757045039
mGCP-III,60,2018-01-31_16:45,4,294,61_Caucasian_female_neutral_left.jpg,26_Caucasian_female_neutral_left.jpg,37_Caucasian_female_neutral_left.jpg,cue_left,target_E,target_right,cue_3,500ms,correct,0.39448232868426203
mGCP-III,60,2018-01-31_16:45,4,295,61_Caucasian_female_neutral_left.jpg,37_Caucasian_female_neutral_left.jpg,26_Caucasian_female_neutral_left.jpg,cue_left,target_F,target_right,cue_3,200ms,correct,0.6399619318367513
mGCP-III,60,2018-01-31_16:45,4,296,26_Caucasian_female_neutral_right.jpg,61_Caucasian_female_neutral_right.jpg,37_Caucasian_female_neutral_right.jpg,cue_right,target_F,target_right,cue_3,200ms,correct,0.5417005596841591
mGCP-III,60,2018-01-31_16:46,4,297,61_Caucasian_female_neutral_right.jpg,26_Caucasian_female_neutral_right.jpg,37_Caucasian_female_neutral_right.jpg,cue_right,target_F,target_left,cue_3,200ms,correct,0.5377072741559914
mGCP-III,60,2018-01-31_16:46,4,298,26_Caucasian_female_neutral_right.jpg,61_Caucasian_female_neutral_right.jpg,37_Caucasian_female_neutral_right.jpg,cue_right,target_E,target_left,cue_3,200ms,incorrect,0.40531492555646764
mGCP-III,60,2018-01-31_16:46,4,299,26_Caucasian_female_neutral_left.jpg,61_Caucasian_female_neutral_left.jpg,37_Caucasian_female_neutral_left.jpg,cue_left,target_F,target_right,cue_3,500ms,correct,0.6130617730614176
mGCP-III,60,2018-01-31_16:46,4,300,26_Caucasian_female_neutral_left.jpg,61_Caucasian_female_neutral_left.jpg,37_Caucasian_female_neutral_left.jpg,cue_left,target_F,target_right,cue_3,200ms,correct,0.5283853939299661
mGCP-III,60,2018-01-31_16:46,4,301,26_Caucasian_female_neutral_right.jpg,37_Caucasian_female_neutral_right.jpg,61_Caucasian_female_neutral_right.jpg,cue_right,target_F,target_left,cue_3,200ms,correct,0.5314257901927704
mGCP-III,60,2018-01-31_16:46,4,302,61_Caucasian_female_neutral_right.jpg,26_Caucasian_female_neutral_right.jpg,37_Caucasian_female_neutral_right.jpg,cue_right,target_F,target_right,cue_3,200ms,correct,0.4279954283438201
mGCP-III,60,2018-01-31_16:46,4,303,61_Caucasian_female_neutral_right.jpg,37_Caucasian_female_neutral_right.jpg,26_Caucasian_female_neutral_right.jpg,cue_right,target_E,target_right,cue_3,500ms,correct,0.44536392903273736
mGCP-III,60,2018-01-31_16:46,4,304,26_Caucasian_female_neutral_right.jpg,61_Caucasian_female_neutral_right.jpg,37_Caucasian_female_neutral_right.jpg,cue_right,target_E,target_left,cue_3,500ms,correct,0.39294158733491713
mGCP-III,60,2018-01-31_16:46,4,305,37_Caucasian_female_neutral_left.jpg,61_Caucasian_female_neutral_left.jpg,26_Caucasian_female_neutral_left.jpg,cue_left,target_F,target_right,cue_3,200ms,correct,0.563466494209024
mGCP-III,60,2018-01-31_16:46,4,306,26_Caucasian_female_neutral_left.jpg,37_Caucasian_female_neutral_left.jpg,61_Caucasian_female_neutral_left.jpg,cue_left,target_E,target_right,cue_3,200ms,correct,0.6233049376019153
mGCP-III,60,2018-01-31_16:46,4,307,37_Caucasian_female_neutral_right.jpg,26_Caucasian_female_neutral_right.jpg,61_Caucasian_female_neutral_right.jpg,cue_right,target_E,target_right,cue_3,200ms,correct,0.5516320203978466
mGCP-III,60,2018-01-31_16:46,4,308,26_Caucasian_female_neutral_right.jpg,61_Caucasian_female_neutral_right.jpg,37_Caucasian_female_neutral_right.jpg,cue_right,target_E,target_right,cue_3,500ms,correct,0.3905929444317735
mGCP-III,60,2018-01-31_16:46,4,309,26_Caucasian_female_neutral_right.jpg,61_Caucasian_female_neutral_right.jpg,37_Caucasian_female_neutral_right.jpg,cue_right,target_F,target_left,cue_3,200ms,correct,0.574183733010841
mGCP-III,60,2018-01-31_16:46,4,310,26_Caucasian_female_neutral_left.jpg,61_Caucasian_female_neutral_left.jpg,37_Caucasian_female_neutral_left.jpg,cue_left,target_E,target_right,cue_3,200ms,correct,0.5495235751204746
mGCP-III,60,2018-01-31_16:46,4,311,26_Caucasian_female_neutral_right.jpg,37_Caucasian_female_neutral_right.jpg,61_Caucasian_female_neutral_right.jpg,cue_right,target_F,target_left,cue_3,500ms,correct,0.5749548938094904
mGCP-III,60,2018-01-31_16:46,4,312,61_Caucasian_female_neutral_left.jpg,26_Caucasian_female_neutral_left.jpg,37_Caucasian_female_neutral_left.jpg,cue_left,target_E,target_left,cue_3,200ms,correct,0.5848788483472163
mGCP-III,60,2018-01-31_16:46,4,313,61_Caucasian_female_neutral_left.jpg,26_Caucasian_female_neutral_left.jpg,37_Caucasian_female_neutral_left.jpg,cue_left,target_E,target_right,cue_3,200ms,correct,0.7119216639689512
mGCP-III,60,2018-01-31_16:46,4,314,26_Caucasian_female_neutral_left.jpg,37_Caucasian_female_neutral_left.jpg,61_Caucasian_female_neutral_left.jpg,cue_left,target_F,target_right,cue_3,500ms,correct,0.5305689009655907
mGCP-III,60,2018-01-31_16:46,4,315,37_Caucasian_female_neutral_right.jpg,26_Caucasian_female_neutral_right.jpg,61_Caucasian_female_neutral_right.jpg,cue_right,target_F,target_right,cue_3,500ms,correct,0.69660867026505
mGCP-III,60,2018-01-31_16:46,4,316,26_Caucasian_female_neutral_left.jpg,61_Caucasian_female_neutral_left.jpg,37_Caucasian_female_neutral_left.jpg,cue_left,target_E,target_right,cue_3,500ms,correct,0.48760394572013865
mGCP-III,60,2018-01-31_16:46,4,317,61_Caucasian_female_neutral_left.jpg,37_Caucasian_female_neutral_left.jpg,26_Caucasian_female_neutral_left.jpg,cue_left,target_F,target_left,cue_3,200ms,correct,0.6046714487590634
mGCP-III,60,2018-01-31_16:46,4,318,61_Caucasian_female_neutral_right.jpg,37_Caucasian_female_neutral_right.jpg,26_Caucasian_female_neutral_right.jpg,cue_right,target_F,target_left,cue_3,200ms,correct,0.49726952978539884
mGCP-III,60,2018-01-31_16:46,4,319,37_Caucasian_female_neutral_left.jpg,26_Caucasian_female_neutral_left.jpg,61_Caucasian_female_neutral_left.jpg,cue_left,target_E,target_right,cue_3,200ms,correct,0.49570113410436534
mGCP-III,60,2018-01-31_16:46,4,320,61_Caucasian_female_neutral_left.jpg,37_Caucasian_female_neutral_left.jpg,26_Caucasian_female_neutral_left.jpg,cue_left,target_E,target_left,cue_3,500ms,correct,0.449341807147448
mGCP-III,60,2018-01-31_16:46,4,321,37_Caucasian_female_neutral_right.jpg,61_Caucasian_female_neutral_right.jpg,26_Caucasian_female_neutral_right.jpg,cue_right,target_E,target_left,cue_3,200ms,correct,0.40678692613801104
mGCP-III,60,2018-01-31_16:46,4,322,61_Caucasian_female_neutral_left.jpg,37_Caucasian_female_neutral_left.jpg,26_Caucasian_female_neutral_left.jpg,cue_left,target_F,target_right,cue_3,500ms,correct,0.5010234078115445
mGCP-III,60,2018-01-31_16:46,4,323,26_Caucasian_female_neutral_left.jpg,61_Caucasian_female_neutral_left.jpg,37_Caucasian_female_neutral_left.jpg,cue_left,target_E,target_left,cue_3,200ms,correct,0.4796181647875528
mGCP-III,60,2018-01-31_16:46,4,324,26_Caucasian_female_neutral_left.jpg,37_Caucasian_female_neutral_left.jpg,61_Caucasian_female_neutral_left.jpg,cue_left,target_F,target_left,cue_3,200ms,correct,0.5659000754174031
mGCP-III,60,2018-01-31_16:46,4,325,61_Caucasian_female_neutral_right.jpg,26_Caucasian_female_neutral_right.jpg,37_Caucasian_female_neutral_right.jpg,cue_right,target_E,target_right,cue_3,200ms,correct,0.46507751706758427
mGCP-III,60,2018-01-31_16:46,4,326,37_Caucasian_female_neutral_left.jpg,61_Caucasian_female_neutral_left.jpg,26_Caucasian_female_neutral_left.jpg,cue_left,target_E,target_left,cue_3,500ms,correct,0.45183464763840675
mGCP-III,60,2018-01-31_16:46,4,327,37_Caucasian_female_neutral_right.jpg,61_Caucasian_female_neutral_right.jpg,26_Caucasian_female_neutral_right.jpg,cue_right,target_E,target_right,cue_3,500ms,correct,0.41942456076026247
mGCP-III,60,2018-01-31_16:46,4,328,37_Caucasian_female_neutral_right.jpg,61_Caucasian_female_neutral_right.jpg,26_Caucasian_female_neutral_right.jpg,cue_right,target_E,target_right,cue_3,200ms,correct,0.45241578367040347
mGCP-III,60,2018-01-31_16:47,4,329,37_Caucasian_female_neutral_right.jpg,26_Caucasian_female_neutral_right.jpg,61_Caucasian_female_neutral_right.jpg,cue_right,target_F,target_left,cue_3,200ms,correct,0.47887307807332036
mGCP-III,60,2018-01-31_16:47,4,330,61_Caucasian_female_neutral_right.jpg,26_Caucasian_female_neutral_right.jpg,37_Caucasian_female_neutral_right.jpg,cue_right,target_F,target_right,cue_3,500ms,correct,0.5098265717833783
mGCP-III,60,2018-01-31_16:47,4,331,37_Caucasian_female_neutral_right.jpg,26_Caucasian_female_neutral_right.jpg,61_Caucasian_female_neutral_right.jpg,cue_right,target_F,target_left,cue_3,500ms,correct,0.39547590932397725
mGCP-III,60,2018-01-31_16:47,4,332,37_Caucasian_female_neutral_left.jpg,61_Caucasian_female_neutral_left.jpg,26_Caucasian_female_neutral_left.jpg,cue_left,target_F,target_right,cue_3,500ms,correct,0.3680965404826111
mGCP-III,60,2018-01-31_16:47,4,333,37_Caucasian_female_neutral_left.jpg,61_Caucasian_female_neutral_left.jpg,26_Caucasian_female_neutral_left.jpg,cue_left,target_E,target_right,cue_3,500ms,correct,0.619633232447768
mGCP-III,60,2018-01-31_16:47,4,334,26_Caucasian_female_neutral_right.jpg,37_Caucasian_female_neutral_right.jpg,61_Caucasian_female_neutral_right.jpg,cue_right,target_E,target_right,cue_3,500ms,correct,0.5082617316588767
mGCP-III,60,2018-01-31_16:47,4,335,37_Caucasian_female_neutral_left.jpg,61_Caucasian_female_neutral_left.jpg,26_Caucasian_female_neutral_left.jpg,cue_left,target_E,target_right,cue_3,200ms,correct,0.41290287917149726
mGCP-III,60,2018-01-31_16:47,4,336,37_Caucasian_female_neutral_left.jpg,26_Caucasian_female_neutral_left.jpg,61_Caucasian_female_neutral_left.jpg,cue_left,target_E,target_right,cue_3,500ms,correct,0.3548639426621776
mGCP-III,60,2018-01-31_16:47,4,337,37_Caucasian_female_neutral_left.jpg,26_Caucasian_female_neutral_left.jpg,61_Caucasian_female_neutral_left.jpg,cue_left,target_E,target_left,cue_3,500ms,correct,0.38291807720224824
mGCP-III,60,2018-01-31_16:47,4,338,37_Caucasian_female_neutral_left.jpg,26_Caucasian_female_neutral_left.jpg,61_Caucasian_female_neutral_left.jpg,cue_left,target_F,target_right,cue_3,500ms,incorrect,0.3752665186239028
mGCP-III,60,2018-01-31_16:47,4,339,61_Caucasian_female_neutral_right.jpg,37_Caucasian_female_neutral_right.jpg,26_Caucasian_female_neutral_right.jpg,cue_right,target_E,target_right,cue_3,200ms,correct,0.6928860021275796
mGCP-III,60,2018-01-31_16:47,4,340,26_Caucasian_female_neutral_left.jpg,61_Caucasian_female_neutral_left.jpg,37_Caucasian_female_neutral_left.jpg,cue_left,target_F,target_left,cue_3,500ms,correct,0.5846832927145442
mGCP-III,60,2018-01-31_16:47,4,341,26_Caucasian_female_neutral_left.jpg,37_Caucasian_female_neutral_left.jpg,61_Caucasian_female_neutral_left.jpg,cue_left,target_F,target_right,cue_3,200ms,99,99
mGCP-III,60,2018-01-31_16:47,4,342,26_Caucasian_female_neutral_left.jpg,61_Caucasian_female_neutral_left.jpg,37_Caucasian_female_neutral_left.jpg,cue_left,target_E,target_left,cue_3,500ms,correct,0.5224444533114365
mGCP-III,60,2018-01-31_16:47,4,343,61_Caucasian_female_neutral_left.jpg,37_Caucasian_female_neutral_left.jpg,26_Caucasian_female_neutral_left.jpg,cue_left,target_E,target_left,cue_3,200ms,correct,0.5711650651517175
mGCP-III,60,2018-01-31_16:47,4,344,37_Caucasian_female_neutral_right.jpg,61_Caucasian_female_neutral_right.jpg,26_Caucasian_female_neutral_right.jpg,cue_right,target_F,target_left,cue_3,500ms,correct,0.5972079396376557
mGCP-III,60,2018-01-31_16:47,4,345,61_Caucasian_female_neutral_left.jpg,37_Caucasian_female_neutral_left.jpg,26_Caucasian_female_neutral_left.jpg,cue_left,target_E,target_right,cue_3,200ms,correct,0.6883633336742605
mGCP-III,60,2018-01-31_16:47,4,346,26_Caucasian_female_neutral_right.jpg,61_Caucasian_female_neutral_right.jpg,37_Caucasian_female_neutral_right.jpg,cue_right,target_E,target_right,cue_3,200ms,correct,0.6079844377222798
mGCP-III,60,2018-01-31_16:47,4,347,61_Caucasian_female_neutral_left.jpg,37_Caucasian_female_neutral_left.jpg,26_Caucasian_female_neutral_left.jpg,cue_left,target_F,target_left,cue_3,500ms,correct,0.5749758320891942
mGCP-III,60,2018-01-31_16:47,4,348,61_Caucasian_female_neutral_right.jpg,26_Caucasian_female_neutral_right.jpg,37_Caucasian_female_neutral_right.jpg,cue_right,target_E,target_left,cue_3,200ms,correct,0.6061659678680371
mGCP-III,60,2018-01-31_16:47,4,349,37_Caucasian_female_neutral_right.jpg,61_Caucasian_female_neutral_right.jpg,26_Caucasian_female_neutral_right.jpg,cue_right,target_E,target_left,cue_3,500ms,correct,0.41503107754306257
mGCP-III,60,2018-01-31_16:47,4,350,61_Caucasian_female_neutral_right.jpg,26_Caucasian_female_neutral_right.jpg,37_Caucasian_female_neutral_right.jpg,cue_right,target_E,target_right,cue_3,500ms,correct,0.3792329399436767
mGCP-III,60,2018-01-31_16:47,4,351,37_Caucasian_female_neutral_right.jpg,26_Caucasian_female_neutral_right.jpg,61_Caucasian_female_neutral_right.jpg,cue_right,target_E,target_right,cue_3,500ms,correct,0.5105574362696643
mGCP-III,60,2018-01-31_16:47,4,352,37_Caucasian_female_neutral_left.jpg,26_Caucasian_female_neutral_left.jpg,61_Caucasian_female_neutral_left.jpg,cue_left,target_F,target_left,cue_3,500ms,correct,0.5050226192681748
mGCP-III,60,2018-01-31_16:47,4,353,37_Caucasian_female_neutral_right.jpg,61_Caucasian_female_neutral_right.jpg,26_Caucasian_female_neutral_right.jpg,cue_right,target_F,target_right,cue_3,200ms,incorrect,0.5834104033226595
mGCP-III,60,2018-01-31_16:47,4,354,61_Caucasian_female_neutral_left.jpg,37_Caucasian_female_neutral_left.jpg,26_Caucasian_female_neutral_left.jpg,cue_left,target_E,target_right,cue_3,500ms,correct,0.41514604055146265
mGCP-III,60,2018-01-31_16:47,4,355,26_Caucasian_female_neutral_left.jpg,37_Caucasian_female_neutral_left.jpg,61_Caucasian_female_neutral_left.jpg,cue_left,target_E,target_left,cue_3,500ms,correct,0.49917175275913905
mGCP-III,60,2018-01-31_16:47,4,356,61_Caucasian_female_neutral_left.jpg,26_Caucasian_female_neutral_left.jpg,37_Caucasian_female_neutral_left.jpg,cue_left,target_F,target_left,cue_3,200ms,correct,0.6803427872957855
mGCP-III,60,2018-01-31_16:47,4,357,37_Caucasian_female_neutral_right.jpg,26_Caucasian_female_neutral_right.jpg,61_Caucasian_female_neutral_right.jpg,cue_right,target_F,target_right,cue_3,200ms,correct,0.6076924869896629
mGCP-III,60,2018-01-31_16:47,4,358,26_Caucasian_female_neutral_right.jpg,37_Caucasian_female_neutral_right.jpg,61_Caucasian_female_neutral_right.jpg,cue_right,target_E,target_left,cue_3,200ms,correct,0.5541817498003638
mGCP-III,60,2018-01-31_16:48,4,359,61_Caucasian_female_neutral_right.jpg,26_Caucasian_female_neutral_right.jpg,37_Caucasian_female_neutral_right.jpg,cue_right,target_F,target_left,cue_3,500ms,correct,0.6425215377862514
mGCP-III,60,2018-01-31_16:48,4,360,37_Caucasian_female_neutral_left.jpg,26_Caucasian_female_neutral_left.jpg,61_Caucasian_female_neutral_left.jpg,cue_left,target_F,target_right,cue_3,200ms,correct,0.5685726690655883
mGCP-III,60,2018-01-31_16:48,4,361,37_Caucasian_female_neutral_left.jpg,26_Caucasian_female_neutral_left.jpg,61_Caucasian_female_neutral_left.jpg,cue_left,target_E,target_left,cue_3,200ms,correct,0.5838390454673572
mGCP-III,60,2018-01-31_16:48,4,362,37_Caucasian_female_neutral_right.jpg,26_Caucasian_female_neutral_right.jpg,61_Caucasian_female_neutral_right.jpg,cue_right,target_E,target_left,cue_3,200ms,correct,0.49597570211381026
mGCP-III,60,2018-01-31_16:48,4,363,26_Caucasian_female_neutral_left.jpg,37_Caucasian_female_neutral_left.jpg,61_Caucasian_female_neutral_left.jpg,cue_left,target_E,target_right,cue_3,500ms,correct,0.4972264680400258
mGCP-III,60,2018-01-31_16:48,4,364,37_Caucasian_female_neutral_right.jpg,61_Caucasian_female_neutral_right.jpg,26_Caucasian_female_neutral_right.jpg,cue_right,target_F,target_right,cue_3,500ms,correct,0.6492367996984285
mGCP-III,60,2018-01-31_16:48,4,365,26_Caucasian_female_neutral_left.jpg,37_Caucasian_female_neutral_left.jpg,61_Caucasian_female_neutral_left.jpg,cue_left,target_F,target_left,cue_3,500ms,correct,0.7346033519420416
mGCP-III,60,2018-01-31_16:48,4,366,61_Caucasian_female_neutral_right.jpg,26_Caucasian_female_neutral_right.jpg,37_Caucasian_female_neutral_right.jpg,cue_right,target_E,target_left,cue_3,500ms,correct,0.5646892107415624
mGCP-III,60,2018-01-31_16:48,4,367,61_Caucasian_female_neutral_right.jpg,37_Caucasian_female_neutral_right.jpg,26_Caucasian_female_neutral_right.jpg,cue_right,target_F,target_right,cue_3,500ms,correct,0.6606295943226996
mGCP-III,60,2018-01-31_16:48,4,368,61_Caucasian_female_neutral_right.jpg,37_Caucasian_female_neutral_right.jpg,26_Caucasian_female_neutral_right.jpg,cue_right,target_E,target_left,cue_3,200ms,correct,0.546247721974396
mGCP-III,60,2018-01-31_16:48,4,369,26_Caucasian_female_neutral_right.jpg,37_Caucasian_female_neutral_right.jpg,61_Caucasian_female_neutral_right.jpg,cue_right,target_F,target_right,cue_3,500ms,correct,0.6785950335190591
mGCP-III,60,2018-01-31_16:48,4,370,37_Caucasian_female_neutral_right.jpg,61_Caucasian_female_neutral_right.jpg,26_Caucasian_female_neutral_right.jpg,cue_right,target_F,target_left,cue_3,200ms,correct,0.5044679523823561
mGCP-III,60,2018-01-31_16:48,4,371,26_Caucasian_female_neutral_right.jpg,37_Caucasian_female_neutral_right.jpg,61_Caucasian_female_neutral_right.jpg,cue_right,target_E,target_left,cue_3,500ms,correct,0.5679654589494021
mGCP-III,60,2018-01-31_16:48,4,372,61_Caucasian_female_neutral_right.jpg,37_Caucasian_female_neutral_right.jpg,26_Caucasian_female_neutral_right.jpg,cue_right,target_F,target_left,cue_3,500ms,correct,0.6260861732685044
mGCP-III,60,2018-01-31_16:48,4,373,26_Caucasian_female_neutral_right.jpg,37_Caucasian_female_neutral_right.jpg,61_Caucasian_female_neutral_right.jpg,cue_right,target_E,target_right,cue_3,200ms,correct,0.689979136781858
mGCP-III,60,2018-01-31_16:48,4,374,61_Caucasian_female_neutral_right.jpg,37_Caucasian_female_neutral_right.jpg,26_Caucasian_female_neutral_right.jpg,cue_right,target_E,target_left,cue_3,500ms,correct,0.49725649274341777
mGCP-III,60,2018-01-31_16:48,4,375,61_Caucasian_female_neutral_left.jpg,26_Caucasian_female_neutral_left.jpg,37_Caucasian_female_neutral_left.jpg,cue_left,target_E,target_left,cue_3,500ms,correct,0.4363415057152906
mGCP-III,60,2018-01-31_16:48,4,376,26_Caucasian_female_neutral_left.jpg,37_Caucasian_female_neutral_left.jpg,61_Caucasian_female_neutral_left.jpg,cue_left,target_E,target_left,cue_3,200ms,correct,0.4671440857853213
mGCP-III,60,2018-01-31_16:48,4,377,26_Caucasian_female_neutral_right.jpg,37_Caucasian_female_neutral_right.jpg,61_Caucasian_female_neutral_right.jpg,cue_right,target_F,target_right,cue_3,200ms,correct,0.528862628686511
mGCP-III,60,2018-01-31_16:48,4,378,61_Caucasian_female_neutral_left.jpg,26_Caucasian_female_neutral_left.jpg,37_Caucasian_female_neutral_left.jpg,cue_left,target_F,target_right,cue_3,200ms,correct,0.519455020031728
mGCP-III,60,2018-01-31_16:48,4,379,61_Caucasian_female_neutral_right.jpg,37_Caucasian_female_neutral_right.jpg,26_Caucasian_female_neutral_right.jpg,cue_right,target_F,target_right,cue_3,200ms,correct,0.4923320463535674
mGCP-III,60,2018-01-31_16:48,4,380,61_Caucasian_female_neutral_left.jpg,26_Caucasian_female_neutral_left.jpg,37_Caucasian_female_neutral_left.jpg,cue_left,target_F,target_right,cue_3,500ms,correct,0.3978782806432264
mGCP-III,60,2018-01-31_16:48,4,381,26_Caucasian_female_neutral_left.jpg,61_Caucasian_female_neutral_left.jpg,37_Caucasian_female_neutral_left.jpg,cue_left,target_F,target_left,cue_3,200ms,correct,0.5348403100604173
mGCP-III,60,2018-01-31_16:48,4,382,37_Caucasian_female_neutral_left.jpg,61_Caucasian_female_neutral_left.jpg,26_Caucasian_female_neutral_left.jpg,cue_left,target_F,target_left,cue_3,200ms,correct,0.4588936133900461
mGCP-III,60,2018-01-31_16:48,4,383,37_Caucasian_female_neutral_right.jpg,26_Caucasian_female_neutral_right.jpg,61_Caucasian_female_neutral_right.jpg,cue_right,target_E,target_left,cue_3,500ms,correct,0.44051770489591036
mGCP-III,60,2018-01-31_16:48,4,384,37_Caucasian_female_neutral_left.jpg,61_Caucasian_female_neutral_left.jpg,26_Caucasian_female_neutral_left.jpg,cue_left,target_E,target_left,cue_3,200ms,correct,0.4681929750886411
