experiment,subject,date,block,trial,face_left,face_top,face_right,cue_dir,target_id,target_pos,cue_num,isi,correct_response,rt
mGCP-III,38,2018-01-23_14:02,1,1,99,37_Caucasian_female_neutral_left.jpg,99,cue_left,target_E,target_left,cue_1,500ms,correct,0.5662905154749751
mGCP-III,38,2018-01-23_14:02,1,2,99,26_Caucasian_female_neutral_right.jpg,99,cue_right,target_F,target_left,cue_1,200ms,correct,0.7447128931526095
mGCP-III,38,2018-01-23_14:02,1,3,99,37_Caucasian_female_neutral_left.jpg,99,cue_left,target_E,target_left,cue_1,500ms,correct,0.5612522973679006
mGCP-III,38,2018-01-23_14:02,1,4,99,37_Caucasian_female_neutral_left.jpg,99,cue_left,target_F,target_right,cue_1,200ms,correct,0.6010946361348033
mGCP-III,38,2018-01-23_14:02,1,5,99,26_Caucasian_female_neutral_left.jpg,99,cue_left,target_E,target_left,cue_1,200ms,correct,0.6039777945261449
mGCP-III,38,2018-01-23_14:02,1,6,99,61_Caucasian_female_neutral_left.jpg,99,cue_left,target_F,target_right,cue_1,500ms,correct,0.4087451584637165
mGCP-III,38,2018-01-23_14:02,1,7,99,61_Caucasian_female_neutral_right.jpg,99,cue_right,target_F,target_left,cue_1,500ms,incorrect,0.47175903455354273
mGCP-III,38,2018-01-23_14:02,1,8,99,61_Caucasian_female_neutral_right.jpg,99,cue_right,target_F,target_right,cue_1,500ms,correct,0.6019732528366148
mGCP-III,38,2018-01-23_14:02,1,9,99,37_Caucasian_female_neutral_right.jpg,99,cue_right,target_F,target_right,cue_1,500ms,correct,0.435788297560066
mGCP-III,38,2018-01-23_14:02,1,10,99,61_Caucasian_female_neutral_right.jpg,99,cue_right,target_E,target_right,cue_1,200ms,correct,0.6325873520690948
mGCP-III,38,2018-01-23_14:02,1,11,99,37_Caucasian_female_neutral_right.jpg,99,cue_right,target_E,target_left,cue_1,200ms,99,99
mGCP-III,38,2018-01-23_14:02,1,12,99,26_Caucasian_female_neutral_right.jpg,99,cue_right,target_E,target_right,cue_1,200ms,correct,0.7692082810681313
mGCP-III,38,2018-01-23_14:02,1,13,99,37_Caucasian_female_neutral_right.jpg,99,cue_right,target_E,target_left,cue_1,500ms,correct,0.7096768713090569
mGCP-III,38,2018-01-23_14:02,1,14,99,37_Caucasian_female_neutral_left.jpg,99,cue_left,target_F,target_left,cue_1,500ms,correct,0.4602224512491375
mGCP-III,38,2018-01-23_14:03,1,15,99,26_Caucasian_female_neutral_left.jpg,99,cue_left,target_E,target_left,cue_1,500ms,correct,0.5527817856054753
mGCP-III,38,2018-01-23_14:03,1,16,99,26_Caucasian_female_neutral_right.jpg,99,cue_right,target_E,target_right,cue_1,500ms,correct,0.4388919002376497
mGCP-III,38,2018-01-23_14:03,1,17,99,37_Caucasian_female_neutral_right.jpg,99,cue_right,target_F,target_left,cue_1,200ms,correct,0.5461542352568358
mGCP-III,38,2018-01-23_14:03,1,18,99,37_Caucasian_female_neutral_left.jpg,99,cue_left,target_F,target_left,cue_1,200ms,correct,0.6349269056227058
mGCP-III,38,2018-01-23_14:03,1,19,99,26_Caucasian_female_neutral_right.jpg,99,cue_right,target_F,target_left,cue_1,500ms,correct,0.6575145421084017
mGCP-III,38,2018-01-23_14:03,1,20,99,61_Caucasian_female_neutral_right.jpg,99,cue_right,target_E,target_left,cue_1,200ms,99,99
mGCP-III,38,2018-01-23_14:03,1,21,99,26_Caucasian_female_neutral_right.jpg,99,cue_right,target_F,target_right,cue_1,500ms,correct,0.395461218431592
mGCP-III,38,2018-01-23_14:03,1,22,99,37_Caucasian_female_neutral_left.jpg,99,cue_left,target_F,target_left,cue_1,200ms,correct,0.593247531214729
mGCP-III,38,2018-01-23_14:03,1,23,99,26_Caucasian_female_neutral_right.jpg,99,cue_right,target_E,target_right,cue_1,200ms,correct,0.5024703189264983
mGCP-III,38,2018-01-23_14:03,1,24,99,26_Caucasian_female_neutral_left.jpg,99,cue_left,target_F,target_left,cue_1,500ms,correct,0.3788828612305224
mGCP-III,38,2018-01-23_14:03,1,25,99,37_Caucasian_female_neutral_right.jpg,99,cue_right,target_E,target_right,cue_1,200ms,correct,0.5519671686924994
mGCP-III,38,2018-01-23_14:03,1,26,99,61_Caucasian_female_neutral_right.jpg,99,cue_right,target_F,target_left,cue_1,500ms,correct,0.4188239653594792
mGCP-III,38,2018-01-23_14:03,1,27,99,61_Caucasian_female_neutral_left.jpg,99,cue_left,target_E,target_right,cue_1,500ms,correct,0.4509961868170649
mGCP-III,38,2018-01-23_14:03,1,28,99,26_Caucasian_female_neutral_right.jpg,99,cue_right,target_F,target_right,cue_1,200ms,correct,0.5415715228300542
mGCP-III,38,2018-01-23_14:03,1,29,99,26_Caucasian_female_neutral_left.jpg,99,cue_left,target_E,target_left,cue_1,200ms,correct,0.43346849689260125
mGCP-III,38,2018-01-23_14:03,1,30,99,26_Caucasian_female_neutral_left.jpg,99,cue_left,target_F,target_right,cue_1,500ms,correct,0.4708144429605454
mGCP-III,38,2018-01-23_14:03,1,31,99,61_Caucasian_female_neutral_right.jpg,99,cue_right,target_E,target_right,cue_1,500ms,correct,0.5060475999489427
mGCP-III,38,2018-01-23_14:03,1,32,99,61_Caucasian_female_neutral_right.jpg,99,cue_right,target_F,target_left,cue_1,200ms,correct,0.6125462814234197
mGCP-III,38,2018-01-23_14:03,1,33,99,37_Caucasian_female_neutral_right.jpg,99,cue_right,target_F,target_right,cue_1,500ms,correct,0.5767592478077859
mGCP-III,38,2018-01-23_14:03,1,34,99,26_Caucasian_female_neutral_left.jpg,99,cue_left,target_F,target_right,cue_1,500ms,correct,0.4944912635255605
mGCP-III,38,2018-01-23_14:03,1,35,99,37_Caucasian_female_neutral_left.jpg,99,cue_left,target_F,target_right,cue_1,500ms,correct,0.41673843609169126
mGCP-III,38,2018-01-23_14:03,1,36,99,61_Caucasian_female_neutral_left.jpg,99,cue_left,target_E,target_right,cue_1,500ms,correct,0.6440943060442805
mGCP-III,38,2018-01-23_14:03,1,37,99,26_Caucasian_female_neutral_right.jpg,99,cue_right,target_E,target_left,cue_1,500ms,correct,0.6177871662657708
mGCP-III,38,2018-01-23_14:03,1,38,99,26_Caucasian_female_neutral_right.jpg,99,cue_right,target_E,target_left,cue_1,200ms,correct,0.5099579181987792
mGCP-III,38,2018-01-23_14:03,1,39,99,61_Caucasian_female_neutral_left.jpg,99,cue_left,target_E,target_left,cue_1,200ms,correct,0.3960609214846045
mGCP-III,38,2018-01-23_14:03,1,40,99,26_Caucasian_female_neutral_right.jpg,99,cue_right,target_E,target_left,cue_1,200ms,correct,0.4367806918453425
mGCP-III,38,2018-01-23_14:03,1,41,99,26_Caucasian_female_neutral_left.jpg,99,cue_left,target_F,target_left,cue_1,500ms,correct,0.45623746677301824
mGCP-III,38,2018-01-23_14:03,1,42,99,26_Caucasian_female_neutral_right.jpg,99,cue_right,target_F,target_left,cue_1,200ms,correct,0.47586885862983763
mGCP-III,38,2018-01-23_14:03,1,43,99,37_Caucasian_female_neutral_right.jpg,99,cue_right,target_F,target_left,cue_1,500ms,correct,0.5163334191311151
mGCP-III,38,2018-01-23_14:03,1,44,99,61_Caucasian_female_neutral_left.jpg,99,cue_left,target_E,target_left,cue_1,200ms,correct,0.656024765688926
mGCP-III,38,2018-01-23_14:04,1,45,99,26_Caucasian_female_neutral_left.jpg,99,cue_left,target_F,target_right,cue_1,200ms,correct,0.3790128363762051
mGCP-III,38,2018-01-23_14:04,1,46,99,37_Caucasian_female_neutral_right.jpg,99,cue_right,target_E,target_right,cue_1,200ms,correct,0.6666380905080587
mGCP-III,38,2018-01-23_14:04,1,47,99,37_Caucasian_female_neutral_left.jpg,99,cue_left,target_E,target_right,cue_1,500ms,correct,0.43970296112820506
mGCP-III,38,2018-01-23_14:04,1,48,99,37_Caucasian_female_neutral_left.jpg,99,cue_left,target_E,target_right,cue_1,200ms,correct,0.4690967155620456
mGCP-III,38,2018-01-23_14:04,1,49,99,26_Caucasian_female_neutral_right.jpg,99,cue_right,target_F,target_right,cue_1,500ms,correct,0.474857896566391
mGCP-III,38,2018-01-23_14:04,1,50,99,61_Caucasian_female_neutral_right.jpg,99,cue_right,target_E,target_right,cue_1,500ms,correct,0.5295565198175609
mGCP-III,38,2018-01-23_14:04,1,51,99,26_Caucasian_female_neutral_left.jpg,99,cue_left,target_E,target_right,cue_1,200ms,correct,0.5602310635149479
mGCP-III,38,2018-01-23_14:04,1,52,99,61_Caucasian_female_neutral_left.jpg,99,cue_left,target_F,target_right,cue_1,200ms,correct,0.540177351096645
mGCP-III,38,2018-01-23_14:04,1,53,99,61_Caucasian_female_neutral_right.jpg,99,cue_right,target_E,target_left,cue_1,500ms,correct,0.5707491787616163
mGCP-III,38,2018-01-23_14:04,1,54,99,61_Caucasian_female_neutral_left.jpg,99,cue_left,target_E,target_left,cue_1,500ms,correct,0.5928907908964902
mGCP-III,38,2018-01-23_14:04,1,55,99,61_Caucasian_female_neutral_right.jpg,99,cue_right,target_E,target_left,cue_1,500ms,correct,0.5661455278750509
mGCP-III,38,2018-01-23_14:04,1,56,99,37_Caucasian_female_neutral_left.jpg,99,cue_left,target_F,target_right,cue_1,200ms,correct,0.42871867353096604
mGCP-III,38,2018-01-23_14:04,1,57,99,37_Caucasian_female_neutral_right.jpg,99,cue_right,target_F,target_left,cue_1,200ms,correct,0.5617603464052081
mGCP-III,38,2018-01-23_14:04,1,58,99,26_Caucasian_female_neutral_left.jpg,99,cue_left,target_F,target_left,cue_1,200ms,correct,0.5011101227719337
mGCP-III,38,2018-01-23_14:04,1,59,99,61_Caucasian_female_neutral_right.jpg,99,cue_right,target_F,target_right,cue_1,200ms,correct,0.49319348693825305
mGCP-III,38,2018-01-23_14:04,1,60,99,37_Caucasian_female_neutral_left.jpg,99,cue_left,target_F,target_right,cue_1,500ms,correct,0.376017480622977
mGCP-III,38,2018-01-23_14:04,1,61,99,37_Caucasian_female_neutral_right.jpg,99,cue_right,target_F,target_right,cue_1,200ms,correct,0.3470089111942798
mGCP-III,38,2018-01-23_14:04,1,62,99,61_Caucasian_female_neutral_left.jpg,99,cue_left,target_F,target_right,cue_1,200ms,correct,0.3869606819935143
mGCP-III,38,2018-01-23_14:04,1,63,99,37_Caucasian_female_neutral_left.jpg,99,cue_left,target_E,target_left,cue_1,200ms,correct,0.49181985831819475
mGCP-III,38,2018-01-23_14:04,1,64,99,61_Caucasian_female_neutral_left.jpg,99,cue_left,target_F,target_left,cue_1,500ms,correct,0.5458674205001444
mGCP-III,38,2018-01-23_14:04,1,65,99,37_Caucasian_female_neutral_right.jpg,99,cue_right,target_E,target_right,cue_1,500ms,correct,0.5176722824107856
mGCP-III,38,2018-01-23_14:04,1,66,99,37_Caucasian_female_neutral_right.jpg,99,cue_right,target_F,target_left,cue_1,500ms,correct,0.48354924749583006
mGCP-III,38,2018-01-23_14:04,1,67,99,37_Caucasian_female_neutral_left.jpg,99,cue_left,target_E,target_right,cue_1,200ms,correct,0.6295050829648972
mGCP-III,38,2018-01-23_14:04,1,68,99,61_Caucasian_female_neutral_right.jpg,99,cue_right,target_F,target_left,cue_1,200ms,correct,0.45012428634800017
mGCP-III,38,2018-01-23_14:04,1,69,99,37_Caucasian_female_neutral_left.jpg,99,cue_left,target_E,target_left,cue_1,200ms,correct,0.5483211469836533
mGCP-III,38,2018-01-23_14:04,1,70,99,61_Caucasian_female_neutral_right.jpg,99,cue_right,target_F,target_right,cue_1,500ms,correct,0.4283429700881243
mGCP-III,38,2018-01-23_14:04,1,71,99,61_Caucasian_female_neutral_left.jpg,99,cue_left,target_F,target_left,cue_1,200ms,correct,0.6438102568499744
mGCP-III,38,2018-01-23_14:04,1,72,99,26_Caucasian_female_neutral_left.jpg,99,cue_left,target_E,target_right,cue_1,500ms,correct,0.5688825135584921
mGCP-III,38,2018-01-23_14:04,1,73,99,37_Caucasian_female_neutral_left.jpg,99,cue_left,target_F,target_left,cue_1,500ms,correct,0.5514875643420964
mGCP-III,38,2018-01-23_14:04,1,74,99,37_Caucasian_female_neutral_right.jpg,99,cue_right,target_F,target_right,cue_1,200ms,correct,0.5421783369965851
mGCP-III,38,2018-01-23_14:04,1,75,99,61_Caucasian_female_neutral_right.jpg,99,cue_right,target_E,target_left,cue_1,200ms,correct,0.4787950785830617
mGCP-III,38,2018-01-23_14:04,1,76,99,61_Caucasian_female_neutral_left.jpg,99,cue_left,target_F,target_right,cue_1,500ms,correct,0.42897348827682436
mGCP-III,38,2018-01-23_14:05,1,77,99,26_Caucasian_female_neutral_left.jpg,99,cue_left,target_E,target_right,cue_1,200ms,correct,0.5966280719731003
mGCP-III,38,2018-01-23_14:05,1,78,99,26_Caucasian_female_neutral_right.jpg,99,cue_right,target_E,target_left,cue_1,500ms,correct,0.5699001916218549
mGCP-III,38,2018-01-23_14:05,1,79,99,37_Caucasian_female_neutral_left.jpg,99,cue_left,target_E,target_right,cue_1,500ms,correct,0.5106421643868089
mGCP-III,38,2018-01-23_14:05,1,80,99,37_Caucasian_female_neutral_right.jpg,99,cue_right,target_E,target_left,cue_1,500ms,correct,0.5198494659271091
mGCP-III,38,2018-01-23_14:05,1,81,99,26_Caucasian_female_neutral_left.jpg,99,cue_left,target_E,target_right,cue_1,500ms,incorrect,0.4573547001928091
mGCP-III,38,2018-01-23_14:05,1,82,99,37_Caucasian_female_neutral_right.jpg,99,cue_right,target_E,target_left,cue_1,200ms,correct,0.6138535398058593
mGCP-III,38,2018-01-23_14:05,1,83,99,61_Caucasian_female_neutral_right.jpg,99,cue_right,target_E,target_right,cue_1,200ms,correct,0.41622406616806984
mGCP-III,38,2018-01-23_14:05,1,84,99,61_Caucasian_female_neutral_left.jpg,99,cue_left,target_F,target_left,cue_1,200ms,correct,0.48561660409905016
mGCP-III,38,2018-01-23_14:05,1,85,99,61_Caucasian_female_neutral_left.jpg,99,cue_left,target_E,target_left,cue_1,500ms,correct,0.6728816411923617
mGCP-III,38,2018-01-23_14:05,1,86,99,26_Caucasian_female_neutral_left.jpg,99,cue_left,target_F,target_right,cue_1,200ms,correct,0.4674674824345857
mGCP-III,38,2018-01-23_14:05,1,87,99,61_Caucasian_female_neutral_left.jpg,99,cue_left,target_E,target_right,cue_1,200ms,incorrect,0.44622661056928337
mGCP-III,38,2018-01-23_14:05,1,88,99,26_Caucasian_female_neutral_right.jpg,99,cue_right,target_F,target_right,cue_1,200ms,correct,0.41778416372835636
mGCP-III,38,2018-01-23_14:05,1,89,99,26_Caucasian_female_neutral_right.jpg,99,cue_right,target_F,target_left,cue_1,500ms,incorrect,0.43565081618726254
mGCP-III,38,2018-01-23_14:05,1,90,99,26_Caucasian_female_neutral_right.jpg,99,cue_right,target_E,target_right,cue_1,500ms,correct,0.5756246314849705
mGCP-III,38,2018-01-23_14:05,1,91,99,61_Caucasian_female_neutral_left.jpg,99,cue_left,target_F,target_left,cue_1,500ms,correct,0.5380499453749508
mGCP-III,38,2018-01-23_14:05,1,92,99,61_Caucasian_female_neutral_right.jpg,99,cue_right,target_F,target_right,cue_1,200ms,correct,0.5506393674295396
mGCP-III,38,2018-01-23_14:05,1,93,99,61_Caucasian_female_neutral_left.jpg,99,cue_left,target_E,target_right,cue_1,200ms,correct,0.6176374377682805
mGCP-III,38,2018-01-23_14:05,1,94,99,37_Caucasian_female_neutral_right.jpg,99,cue_right,target_E,target_right,cue_1,500ms,correct,0.6377346073277295
mGCP-III,38,2018-01-23_14:05,1,95,99,26_Caucasian_female_neutral_left.jpg,99,cue_left,target_E,target_left,cue_1,500ms,correct,0.5365581933874637
mGCP-III,38,2018-01-23_14:05,1,96,99,26_Caucasian_female_neutral_left.jpg,99,cue_left,target_F,target_left,cue_1,200ms,correct,0.473938983399421
mGCP-III,38,2018-01-23_14:05,2,97,61_Caucasian_female_neutral_right.jpg,26_Caucasian_female_neutral_right.jpg,37_Caucasian_female_neutral_right.jpg,cue_right,target_E,target_left,cue_3,500ms,99,99
mGCP-III,38,2018-01-23_14:05,2,98,37_Caucasian_female_neutral_right.jpg,61_Caucasian_female_neutral_right.jpg,26_Caucasian_female_neutral_right.jpg,cue_right,target_E,target_left,cue_3,500ms,correct,0.42047650716267526
mGCP-III,38,2018-01-23_14:05,2,99,26_Caucasian_female_neutral_right.jpg,61_Caucasian_female_neutral_right.jpg,37_Caucasian_female_neutral_right.jpg,cue_right,target_F,target_right,cue_3,500ms,correct,0.4286203032825142
mGCP-III,38,2018-01-23_14:05,2,100,37_Caucasian_female_neutral_right.jpg,61_Caucasian_female_neutral_right.jpg,26_Caucasian_female_neutral_right.jpg,cue_right,target_E,target_right,cue_3,200ms,correct,0.7248776494525373
mGCP-III,38,2018-01-23_14:05,2,101,61_Caucasian_female_neutral_right.jpg,37_Caucasian_female_neutral_right.jpg,26_Caucasian_female_neutral_right.jpg,cue_right,target_E,target_left,cue_3,200ms,correct,0.5309475311078131
mGCP-III,38,2018-01-23_14:05,2,102,37_Caucasian_female_neutral_left.jpg,26_Caucasian_female_neutral_left.jpg,61_Caucasian_female_neutral_left.jpg,cue_left,target_F,target_right,cue_3,200ms,correct,0.7036762835923582
mGCP-III,38,2018-01-23_14:05,2,103,61_Caucasian_female_neutral_left.jpg,37_Caucasian_female_neutral_left.jpg,26_Caucasian_female_neutral_left.jpg,cue_left,target_F,target_right,cue_3,500ms,correct,0.5320434314198792
mGCP-III,38,2018-01-23_14:06,2,104,37_Caucasian_female_neutral_right.jpg,61_Caucasian_female_neutral_right.jpg,26_Caucasian_female_neutral_right.jpg,cue_right,target_F,target_left,cue_3,200ms,correct,0.7966042100451887
mGCP-III,38,2018-01-23_14:06,2,105,61_Caucasian_female_neutral_left.jpg,26_Caucasian_female_neutral_left.jpg,37_Caucasian_female_neutral_left.jpg,cue_left,target_F,target_right,cue_3,500ms,correct,0.7356284556444734
mGCP-III,38,2018-01-23_14:06,2,106,61_Caucasian_female_neutral_right.jpg,26_Caucasian_female_neutral_right.jpg,37_Caucasian_female_neutral_right.jpg,cue_right,target_F,target_left,cue_3,500ms,correct,0.6769132427871227
mGCP-III,38,2018-01-23_14:06,2,107,26_Caucasian_female_neutral_right.jpg,37_Caucasian_female_neutral_right.jpg,61_Caucasian_female_neutral_right.jpg,cue_right,target_E,target_left,cue_3,200ms,correct,0.638386853504926
mGCP-III,38,2018-01-23_14:06,2,108,61_Caucasian_female_neutral_left.jpg,26_Caucasian_female_neutral_left.jpg,37_Caucasian_female_neutral_left.jpg,cue_left,target_E,target_right,cue_3,500ms,incorrect,0.5518063788767904
mGCP-III,38,2018-01-23_14:06,2,109,61_Caucasian_female_neutral_left.jpg,37_Caucasian_female_neutral_left.jpg,26_Caucasian_female_neutral_left.jpg,cue_left,target_F,target_left,cue_3,500ms,correct,0.5362571564037353
mGCP-III,38,2018-01-23_14:06,2,110,61_Caucasian_female_neutral_right.jpg,26_Caucasian_female_neutral_right.jpg,37_Caucasian_female_neutral_right.jpg,cue_right,target_E,target_right,cue_3,500ms,correct,0.44923618831671774
mGCP-III,38,2018-01-23_14:06,2,111,26_Caucasian_female_neutral_left.jpg,61_Caucasian_female_neutral_left.jpg,37_Caucasian_female_neutral_left.jpg,cue_left,target_E,target_right,cue_3,500ms,correct,0.7547719466965646
mGCP-III,38,2018-01-23_14:06,2,112,37_Caucasian_female_neutral_right.jpg,26_Caucasian_female_neutral_right.jpg,61_Caucasian_female_neutral_right.jpg,cue_right,target_F,target_right,cue_3,500ms,incorrect,0.5665085895452648
mGCP-III,38,2018-01-23_14:06,2,113,37_Caucasian_female_neutral_right.jpg,61_Caucasian_female_neutral_right.jpg,26_Caucasian_female_neutral_right.jpg,cue_right,target_F,target_right,cue_3,200ms,correct,0.5223320317454636
mGCP-III,38,2018-01-23_14:06,2,114,37_Caucasian_female_neutral_left.jpg,61_Caucasian_female_neutral_left.jpg,26_Caucasian_female_neutral_left.jpg,cue_left,target_E,target_right,cue_3,500ms,correct,0.5211507980711758
mGCP-III,38,2018-01-23_14:06,2,115,61_Caucasian_female_neutral_right.jpg,26_Caucasian_female_neutral_right.jpg,37_Caucasian_female_neutral_right.jpg,cue_right,target_F,target_right,cue_3,200ms,correct,0.5328327640891075
mGCP-III,38,2018-01-23_14:06,2,116,26_Caucasian_female_neutral_left.jpg,37_Caucasian_female_neutral_left.jpg,61_Caucasian_female_neutral_left.jpg,cue_left,target_E,target_left,cue_3,200ms,correct,0.4396361957769841
mGCP-III,38,2018-01-23_14:06,2,117,37_Caucasian_female_neutral_right.jpg,26_Caucasian_female_neutral_right.jpg,61_Caucasian_female_neutral_right.jpg,cue_right,target_E,target_right,cue_3,500ms,correct,0.5775857164990157
mGCP-III,38,2018-01-23_14:06,2,118,26_Caucasian_female_neutral_right.jpg,37_Caucasian_female_neutral_right.jpg,61_Caucasian_female_neutral_right.jpg,cue_right,target_F,target_left,cue_3,200ms,correct,0.5148369264788926
mGCP-III,38,2018-01-23_14:06,2,119,26_Caucasian_female_neutral_right.jpg,61_Caucasian_female_neutral_right.jpg,37_Caucasian_female_neutral_right.jpg,cue_right,target_E,target_right,cue_3,200ms,correct,0.49011714360676706
mGCP-III,38,2018-01-23_14:06,2,120,26_Caucasian_female_neutral_left.jpg,61_Caucasian_female_neutral_left.jpg,37_Caucasian_female_neutral_left.jpg,cue_left,target_F,target_right,cue_3,200ms,correct,0.530990197788924
mGCP-III,38,2018-01-23_14:06,2,121,26_Caucasian_female_neutral_right.jpg,61_Caucasian_female_neutral_right.jpg,37_Caucasian_female_neutral_right.jpg,cue_right,target_E,target_right,cue_3,500ms,correct,0.48346154391765594
mGCP-III,38,2018-01-23_14:06,2,122,61_Caucasian_female_neutral_right.jpg,37_Caucasian_female_neutral_right.jpg,26_Caucasian_female_neutral_right.jpg,cue_right,target_F,target_right,cue_3,500ms,correct,0.4032040270976722
mGCP-III,38,2018-01-23_14:06,2,123,26_Caucasian_female_neutral_left.jpg,61_Caucasian_female_neutral_left.jpg,37_Caucasian_female_neutral_left.jpg,cue_left,target_F,target_left,cue_3,200ms,correct,0.5620321484748274
mGCP-III,38,2018-01-23_14:06,2,124,26_Caucasian_female_neutral_right.jpg,37_Caucasian_female_neutral_right.jpg,61_Caucasian_female_neutral_right.jpg,cue_right,target_F,target_right,cue_3,200ms,correct,0.6621596743352711
mGCP-III,38,2018-01-23_14:06,2,125,61_Caucasian_female_neutral_left.jpg,26_Caucasian_female_neutral_left.jpg,37_Caucasian_female_neutral_left.jpg,cue_left,target_E,target_left,cue_3,200ms,correct,0.5685289334505796
mGCP-III,38,2018-01-23_14:06,2,126,61_Caucasian_female_neutral_left.jpg,26_Caucasian_female_neutral_left.jpg,37_Caucasian_female_neutral_left.jpg,cue_left,target_E,target_left,cue_3,500ms,correct,0.5203385518398136
mGCP-III,38,2018-01-23_14:06,2,127,37_Caucasian_female_neutral_left.jpg,61_Caucasian_female_neutral_left.jpg,26_Caucasian_female_neutral_left.jpg,cue_left,target_F,target_right,cue_3,200ms,correct,0.4016146950889379
mGCP-III,38,2018-01-23_14:06,2,128,61_Caucasian_female_neutral_right.jpg,26_Caucasian_female_neutral_right.jpg,37_Caucasian_female_neutral_right.jpg,cue_right,target_E,target_right,cue_3,200ms,correct,0.561631556134671
mGCP-III,38,2018-01-23_14:06,2,129,37_Caucasian_female_neutral_right.jpg,61_Caucasian_female_neutral_right.jpg,26_Caucasian_female_neutral_right.jpg,cue_right,target_F,target_right,cue_3,500ms,correct,0.6721298391930759
mGCP-III,38,2018-01-23_14:06,2,130,61_Caucasian_female_neutral_right.jpg,37_Caucasian_female_neutral_right.jpg,26_Caucasian_female_neutral_right.jpg,cue_right,target_F,target_right,cue_3,200ms,correct,0.56896903202869
mGCP-III,38,2018-01-23_14:06,2,131,37_Caucasian_female_neutral_left.jpg,61_Caucasian_female_neutral_left.jpg,26_Caucasian_female_neutral_left.jpg,cue_left,target_F,target_right,cue_3,500ms,correct,0.41128145274706185
mGCP-III,38,2018-01-23_14:06,2,132,26_Caucasian_female_neutral_right.jpg,37_Caucasian_female_neutral_right.jpg,61_Caucasian_female_neutral_right.jpg,cue_right,target_F,target_left,cue_3,500ms,correct,0.42853457503952086
mGCP-III,38,2018-01-23_14:06,2,133,61_Caucasian_female_neutral_left.jpg,37_Caucasian_female_neutral_left.jpg,26_Caucasian_female_neutral_left.jpg,cue_left,target_F,target_left,cue_3,200ms,correct,0.5708605861291289
mGCP-III,38,2018-01-23_14:07,2,134,26_Caucasian_female_neutral_right.jpg,61_Caucasian_female_neutral_right.jpg,37_Caucasian_female_neutral_right.jpg,cue_right,target_F,target_left,cue_3,500ms,correct,0.381707550259307
mGCP-III,38,2018-01-23_14:07,2,135,26_Caucasian_female_neutral_left.jpg,37_Caucasian_female_neutral_left.jpg,61_Caucasian_female_neutral_left.jpg,cue_left,target_F,target_left,cue_3,500ms,correct,0.36027744389139116
mGCP-III,38,2018-01-23_14:07,2,136,37_Caucasian_female_neutral_left.jpg,61_Caucasian_female_neutral_left.jpg,26_Caucasian_female_neutral_left.jpg,cue_left,target_E,target_left,cue_3,200ms,incorrect,0.3396603735163808
mGCP-III,38,2018-01-23_14:07,2,137,26_Caucasian_female_neutral_left.jpg,61_Caucasian_female_neutral_left.jpg,37_Caucasian_female_neutral_left.jpg,cue_left,target_F,target_left,cue_3,500ms,correct,0.38824621168896556
mGCP-III,38,2018-01-23_14:07,2,138,37_Caucasian_female_neutral_left.jpg,26_Caucasian_female_neutral_left.jpg,61_Caucasian_female_neutral_left.jpg,cue_left,target_E,target_left,cue_3,500ms,correct,0.4666303473059088
mGCP-III,38,2018-01-23_14:07,2,139,37_Caucasian_female_neutral_left.jpg,61_Caucasian_female_neutral_left.jpg,26_Caucasian_female_neutral_left.jpg,cue_left,target_E,target_right,cue_3,200ms,correct,0.6363898180425167
mGCP-III,38,2018-01-23_14:07,2,140,37_Caucasian_female_neutral_right.jpg,26_Caucasian_female_neutral_right.jpg,61_Caucasian_female_neutral_right.jpg,cue_right,target_E,target_left,cue_3,200ms,correct,0.4602196856867522
mGCP-III,38,2018-01-23_14:07,2,141,37_Caucasian_female_neutral_right.jpg,26_Caucasian_female_neutral_right.jpg,61_Caucasian_female_neutral_right.jpg,cue_right,target_E,target_right,cue_3,200ms,99,99
mGCP-III,38,2018-01-23_14:07,2,142,61_Caucasian_female_neutral_left.jpg,26_Caucasian_female_neutral_left.jpg,37_Caucasian_female_neutral_left.jpg,cue_left,target_E,target_right,cue_3,200ms,correct,0.4110870824661106
mGCP-III,38,2018-01-23_14:07,2,143,61_Caucasian_female_neutral_right.jpg,37_Caucasian_female_neutral_right.jpg,26_Caucasian_female_neutral_right.jpg,cue_right,target_E,target_left,cue_3,500ms,correct,0.44564626505598426
mGCP-III,38,2018-01-23_14:07,2,144,26_Caucasian_female_neutral_left.jpg,61_Caucasian_female_neutral_left.jpg,37_Caucasian_female_neutral_left.jpg,cue_left,target_E,target_right,cue_3,200ms,incorrect,0.4677882723044604
mGCP-III,38,2018-01-23_14:07,2,145,26_Caucasian_female_neutral_left.jpg,61_Caucasian_female_neutral_left.jpg,37_Caucasian_female_neutral_left.jpg,cue_left,target_E,target_left,cue_3,200ms,correct,0.49900484015233815
mGCP-III,38,2018-01-23_14:07,2,146,37_Caucasian_female_neutral_right.jpg,26_Caucasian_female_neutral_right.jpg,61_Caucasian_female_neutral_right.jpg,cue_right,target_E,target_left,cue_3,500ms,correct,0.3737814330961555
mGCP-III,38,2018-01-23_14:07,2,147,61_Caucasian_female_neutral_left.jpg,26_Caucasian_female_neutral_left.jpg,37_Caucasian_female_neutral_left.jpg,cue_left,target_F,target_right,cue_3,200ms,correct,0.43832340673543513
mGCP-III,38,2018-01-23_14:07,2,148,37_Caucasian_female_neutral_left.jpg,26_Caucasian_female_neutral_left.jpg,61_Caucasian_female_neutral_left.jpg,cue_left,target_F,target_left,cue_3,200ms,correct,0.539305055513978
mGCP-III,38,2018-01-23_14:07,2,149,37_Caucasian_female_neutral_right.jpg,26_Caucasian_female_neutral_right.jpg,61_Caucasian_female_neutral_right.jpg,cue_right,target_F,target_left,cue_3,500ms,correct,0.4463407832663506
mGCP-III,38,2018-01-23_14:07,2,150,26_Caucasian_female_neutral_right.jpg,61_Caucasian_female_neutral_right.jpg,37_Caucasian_female_neutral_right.jpg,cue_right,target_E,target_left,cue_3,500ms,correct,0.5445546314585954
mGCP-III,38,2018-01-23_14:07,2,151,26_Caucasian_female_neutral_left.jpg,37_Caucasian_female_neutral_left.jpg,61_Caucasian_female_neutral_left.jpg,cue_left,target_F,target_left,cue_3,200ms,correct,0.5752765825018287
mGCP-III,38,2018-01-23_14:07,2,152,26_Caucasian_female_neutral_left.jpg,37_Caucasian_female_neutral_left.jpg,61_Caucasian_female_neutral_left.jpg,cue_left,target_E,target_left,cue_3,500ms,correct,0.640167000470683
mGCP-III,38,2018-01-23_14:07,2,153,26_Caucasian_female_neutral_left.jpg,61_Caucasian_female_neutral_left.jpg,37_Caucasian_female_neutral_left.jpg,cue_left,target_E,target_left,cue_3,500ms,correct,0.6432753435801715
mGCP-III,38,2018-01-23_14:07,2,154,26_Caucasian_female_neutral_left.jpg,37_Caucasian_female_neutral_left.jpg,61_Caucasian_female_neutral_left.jpg,cue_left,target_F,target_right,cue_3,200ms,correct,0.4758163155056536
mGCP-III,38,2018-01-23_14:07,2,155,61_Caucasian_female_neutral_right.jpg,26_Caucasian_female_neutral_right.jpg,37_Caucasian_female_neutral_right.jpg,cue_right,target_F,target_right,cue_3,500ms,correct,0.36341660167090595
mGCP-III,38,2018-01-23_14:07,2,156,26_Caucasian_female_neutral_left.jpg,37_Caucasian_female_neutral_left.jpg,61_Caucasian_female_neutral_left.jpg,cue_left,target_E,target_right,cue_3,500ms,correct,0.4414285896345973
mGCP-III,38,2018-01-23_14:07,2,157,61_Caucasian_female_neutral_right.jpg,37_Caucasian_female_neutral_right.jpg,26_Caucasian_female_neutral_right.jpg,cue_right,target_E,target_right,cue_3,200ms,correct,0.42730869934894145
mGCP-III,38,2018-01-23_14:07,2,158,61_Caucasian_female_neutral_right.jpg,37_Caucasian_female_neutral_right.jpg,26_Caucasian_female_neutral_right.jpg,cue_right,target_F,target_left,cue_3,200ms,correct,0.6182659806217998
mGCP-III,38,2018-01-23_14:07,2,159,61_Caucasian_female_neutral_left.jpg,26_Caucasian_female_neutral_left.jpg,37_Caucasian_female_neutral_left.jpg,cue_left,target_F,target_left,cue_3,500ms,correct,0.61099843098782
mGCP-III,38,2018-01-23_14:07,2,160,61_Caucasian_female_neutral_left.jpg,26_Caucasian_female_neutral_left.jpg,37_Caucasian_female_neutral_left.jpg,cue_left,target_F,target_left,cue_3,200ms,correct,0.4064873824827373
mGCP-III,38,2018-01-23_14:07,2,161,26_Caucasian_female_neutral_right.jpg,37_Caucasian_female_neutral_right.jpg,61_Caucasian_female_neutral_right.jpg,cue_right,target_E,target_left,cue_3,500ms,correct,0.412623081356287
mGCP-III,38,2018-01-23_14:07,2,162,26_Caucasian_female_neutral_left.jpg,37_Caucasian_female_neutral_left.jpg,61_Caucasian_female_neutral_left.jpg,cue_left,target_F,target_right,cue_3,500ms,correct,0.40246565733104944
mGCP-III,38,2018-01-23_14:07,2,163,61_Caucasian_female_neutral_left.jpg,37_Caucasian_female_neutral_left.jpg,26_Caucasian_female_neutral_left.jpg,cue_left,target_E,target_right,cue_3,200ms,incorrect,0.3240040896926075
mGCP-III,38,2018-01-23_14:07,2,164,37_Caucasian_female_neutral_right.jpg,26_Caucasian_female_neutral_right.jpg,61_Caucasian_female_neutral_right.jpg,cue_right,target_F,target_left,cue_3,200ms,correct,0.5245870423968881
mGCP-III,38,2018-01-23_14:08,2,165,26_Caucasian_female_neutral_right.jpg,37_Caucasian_female_neutral_right.jpg,61_Caucasian_female_neutral_right.jpg,cue_right,target_F,target_right,cue_3,500ms,correct,0.48830934264697134
mGCP-III,38,2018-01-23_14:08,2,166,26_Caucasian_female_neutral_right.jpg,37_Caucasian_female_neutral_right.jpg,61_Caucasian_female_neutral_right.jpg,cue_right,target_E,target_right,cue_3,200ms,correct,0.5019571341108531
mGCP-III,38,2018-01-23_14:08,2,167,61_Caucasian_female_neutral_left.jpg,37_Caucasian_female_neutral_left.jpg,26_Caucasian_female_neutral_left.jpg,cue_left,target_F,target_right,cue_3,200ms,correct,0.5386148830875754
mGCP-III,38,2018-01-23_14:08,2,168,61_Caucasian_female_neutral_left.jpg,37_Caucasian_female_neutral_left.jpg,26_Caucasian_female_neutral_left.jpg,cue_left,target_E,target_left,cue_3,200ms,correct,0.5013700728304684
mGCP-III,38,2018-01-23_14:08,2,169,26_Caucasian_female_neutral_left.jpg,37_Caucasian_female_neutral_left.jpg,61_Caucasian_female_neutral_left.jpg,cue_left,target_E,target_right,cue_3,200ms,correct,0.5277372619602829
mGCP-III,38,2018-01-23_14:08,2,170,37_Caucasian_female_neutral_left.jpg,26_Caucasian_female_neutral_left.jpg,61_Caucasian_female_neutral_left.jpg,cue_left,target_E,target_right,cue_3,200ms,correct,0.384025375591591
mGCP-III,38,2018-01-23_14:08,2,171,37_Caucasian_female_neutral_left.jpg,61_Caucasian_female_neutral_left.jpg,26_Caucasian_female_neutral_left.jpg,cue_left,target_E,target_left,cue_3,500ms,correct,0.5435582865029573
mGCP-III,38,2018-01-23_14:08,2,172,37_Caucasian_female_neutral_left.jpg,61_Caucasian_female_neutral_left.jpg,26_Caucasian_female_neutral_left.jpg,cue_left,target_F,target_left,cue_3,200ms,correct,0.6214576817583293
mGCP-III,38,2018-01-23_14:08,2,173,37_Caucasian_female_neutral_right.jpg,61_Caucasian_female_neutral_right.jpg,26_Caucasian_female_neutral_right.jpg,cue_right,target_F,target_left,cue_3,500ms,correct,0.5900360769592226
mGCP-III,38,2018-01-23_14:08,2,174,26_Caucasian_female_neutral_right.jpg,61_Caucasian_female_neutral_right.jpg,37_Caucasian_female_neutral_right.jpg,cue_right,target_F,target_left,cue_3,200ms,correct,0.5071431053802371
mGCP-III,38,2018-01-23_14:08,2,175,26_Caucasian_female_neutral_right.jpg,61_Caucasian_female_neutral_right.jpg,37_Caucasian_female_neutral_right.jpg,cue_right,target_E,target_left,cue_3,200ms,correct,0.6153650446794927
mGCP-III,38,2018-01-23_14:08,2,176,26_Caucasian_female_neutral_right.jpg,37_Caucasian_female_neutral_right.jpg,61_Caucasian_female_neutral_right.jpg,cue_right,target_E,target_right,cue_3,500ms,correct,0.5220191432163119
mGCP-III,38,2018-01-23_14:08,2,177,37_Caucasian_female_neutral_right.jpg,26_Caucasian_female_neutral_right.jpg,61_Caucasian_female_neutral_right.jpg,cue_right,target_F,target_right,cue_3,200ms,correct,0.5162725797854364
mGCP-III,38,2018-01-23_14:08,2,178,37_Caucasian_female_neutral_left.jpg,61_Caucasian_female_neutral_left.jpg,26_Caucasian_female_neutral_left.jpg,cue_left,target_F,target_left,cue_3,500ms,correct,0.5383478216826916
mGCP-III,38,2018-01-23_14:08,2,179,61_Caucasian_female_neutral_right.jpg,26_Caucasian_female_neutral_right.jpg,37_Caucasian_female_neutral_right.jpg,cue_right,target_F,target_left,cue_3,200ms,correct,0.749664592789486
mGCP-III,38,2018-01-23_14:08,2,180,37_Caucasian_female_neutral_right.jpg,61_Caucasian_female_neutral_right.jpg,26_Caucasian_female_neutral_right.jpg,cue_right,target_E,target_right,cue_3,500ms,correct,0.5859302037861198
mGCP-III,38,2018-01-23_14:08,2,181,37_Caucasian_female_neutral_right.jpg,61_Caucasian_female_neutral_right.jpg,26_Caucasian_female_neutral_right.jpg,cue_right,target_E,target_left,cue_3,200ms,correct,0.5560789681039751
mGCP-III,38,2018-01-23_14:08,2,182,37_Caucasian_female_neutral_left.jpg,26_Caucasian_female_neutral_left.jpg,61_Caucasian_female_neutral_left.jpg,cue_left,target_F,target_left,cue_3,500ms,correct,0.5673473046626896
mGCP-III,38,2018-01-23_14:08,2,183,61_Caucasian_female_neutral_left.jpg,37_Caucasian_female_neutral_left.jpg,26_Caucasian_female_neutral_left.jpg,cue_left,target_E,target_right,cue_3,500ms,correct,0.6669833741616458
mGCP-III,38,2018-01-23_14:08,2,184,26_Caucasian_female_neutral_left.jpg,61_Caucasian_female_neutral_left.jpg,37_Caucasian_female_neutral_left.jpg,cue_left,target_F,target_right,cue_3,500ms,incorrect,0.4874635161831975
mGCP-III,38,2018-01-23_14:08,2,185,61_Caucasian_female_neutral_right.jpg,37_Caucasian_female_neutral_right.jpg,26_Caucasian_female_neutral_right.jpg,cue_right,target_E,target_right,cue_3,500ms,correct,0.4479909548535943
mGCP-III,38,2018-01-23_14:08,2,186,61_Caucasian_female_neutral_left.jpg,37_Caucasian_female_neutral_left.jpg,26_Caucasian_female_neutral_left.jpg,cue_left,target_E,target_left,cue_3,500ms,correct,0.5061827111057937
mGCP-III,38,2018-01-23_14:08,2,187,37_Caucasian_female_neutral_left.jpg,26_Caucasian_female_neutral_left.jpg,61_Caucasian_female_neutral_left.jpg,cue_left,target_E,target_left,cue_3,200ms,correct,0.5253902019467205
mGCP-III,38,2018-01-23_14:08,2,188,37_Caucasian_female_neutral_left.jpg,26_Caucasian_female_neutral_left.jpg,61_Caucasian_female_neutral_left.jpg,cue_left,target_E,target_right,cue_3,500ms,correct,0.6294695273973048
mGCP-III,38,2018-01-23_14:08,2,189,37_Caucasian_female_neutral_left.jpg,26_Caucasian_female_neutral_left.jpg,61_Caucasian_female_neutral_left.jpg,cue_left,target_F,target_right,cue_3,500ms,correct,0.5625883950851858
mGCP-III,38,2018-01-23_14:08,2,190,61_Caucasian_female_neutral_right.jpg,37_Caucasian_female_neutral_right.jpg,26_Caucasian_female_neutral_right.jpg,cue_right,target_F,target_left,cue_3,500ms,correct,0.552053292049095
mGCP-III,38,2018-01-23_14:08,2,191,61_Caucasian_female_neutral_right.jpg,26_Caucasian_female_neutral_right.jpg,37_Caucasian_female_neutral_right.jpg,cue_right,target_E,target_left,cue_3,200ms,correct,0.5737599416170269
mGCP-III,38,2018-01-23_14:08,2,192,26_Caucasian_female_neutral_right.jpg,61_Caucasian_female_neutral_right.jpg,37_Caucasian_female_neutral_right.jpg,cue_right,target_F,target_right,cue_3,200ms,correct,0.41791571909561753
mGCP-III,38,2018-01-23_14:09,3,193,99,61_Caucasian_female_neutral_right.jpg,99,cue_right,target_F,target_right,cue_1,500ms,correct,0.4337454349733889
mGCP-III,38,2018-01-23_14:09,3,194,99,26_Caucasian_female_neutral_left.jpg,99,cue_left,target_F,target_left,cue_1,500ms,incorrect,0.43805318465456367
mGCP-III,38,2018-01-23_14:09,3,195,99,26_Caucasian_female_neutral_right.jpg,99,cue_right,target_F,target_right,cue_1,200ms,correct,0.4393805912695825
mGCP-III,38,2018-01-23_14:09,3,196,99,61_Caucasian_female_neutral_right.jpg,99,cue_right,target_F,target_right,cue_1,500ms,correct,0.438188690925017
mGCP-III,38,2018-01-23_14:09,3,197,99,26_Caucasian_female_neutral_right.jpg,99,cue_right,target_E,target_right,cue_1,500ms,correct,0.677478970726952
mGCP-III,38,2018-01-23_14:09,3,198,99,26_Caucasian_female_neutral_right.jpg,99,cue_right,target_F,target_right,cue_1,500ms,correct,0.5229542534798384
mGCP-III,38,2018-01-23_14:09,3,199,99,37_Caucasian_female_neutral_left.jpg,99,cue_left,target_F,target_left,cue_1,500ms,correct,0.5049133787397295
mGCP-III,38,2018-01-23_14:09,3,200,99,37_Caucasian_female_neutral_right.jpg,99,cue_right,target_E,target_right,cue_1,500ms,correct,0.5462162599433213
mGCP-III,38,2018-01-23_14:09,3,201,99,61_Caucasian_female_neutral_left.jpg,99,cue_left,target_F,target_left,cue_1,500ms,correct,0.41856954572722316
mGCP-III,38,2018-01-23_14:09,3,202,99,37_Caucasian_female_neutral_left.jpg,99,cue_left,target_E,target_right,cue_1,200ms,correct,0.7715517852921039
mGCP-III,38,2018-01-23_14:09,3,203,99,26_Caucasian_female_neutral_right.jpg,99,cue_right,target_E,target_left,cue_1,500ms,correct,0.7363348256330937
mGCP-III,38,2018-01-23_14:09,3,204,99,61_Caucasian_female_neutral_right.jpg,99,cue_right,target_F,target_right,cue_1,200ms,correct,0.675856058485806
mGCP-III,38,2018-01-23_14:09,3,205,99,37_Caucasian_female_neutral_right.jpg,99,cue_right,target_F,target_left,cue_1,200ms,99,99
mGCP-III,38,2018-01-23_14:09,3,206,99,37_Caucasian_female_neutral_right.jpg,99,cue_right,target_E,target_right,cue_1,200ms,correct,0.5385200681630522
mGCP-III,38,2018-01-23_14:09,3,207,99,26_Caucasian_female_neutral_right.jpg,99,cue_right,target_F,target_left,cue_1,200ms,correct,0.4918822778854519
mGCP-III,38,2018-01-23_14:09,3,208,99,61_Caucasian_female_neutral_right.jpg,99,cue_right,target_F,target_left,cue_1,200ms,correct,0.42752558807842433
mGCP-III,38,2018-01-23_14:09,3,209,99,26_Caucasian_female_neutral_left.jpg,99,cue_left,target_F,target_left,cue_1,200ms,correct,0.5965044177137315
mGCP-III,38,2018-01-23_14:09,3,210,99,37_Caucasian_female_neutral_left.jpg,99,cue_left,target_F,target_right,cue_1,500ms,correct,0.6851700264960527
mGCP-III,38,2018-01-23_14:09,3,211,99,26_Caucasian_female_neutral_left.jpg,99,cue_left,target_E,target_right,cue_1,200ms,correct,0.6132174907252192
mGCP-III,38,2018-01-23_14:09,3,212,99,37_Caucasian_female_neutral_left.jpg,99,cue_left,target_E,target_right,cue_1,200ms,correct,0.62000069511123
mGCP-III,38,2018-01-23_14:09,3,213,99,61_Caucasian_female_neutral_right.jpg,99,cue_right,target_E,target_left,cue_1,500ms,correct,0.571103548631072
mGCP-III,38,2018-01-23_14:09,3,214,99,37_Caucasian_female_neutral_left.jpg,99,cue_left,target_E,target_left,cue_1,200ms,correct,0.5566000540275127
mGCP-III,38,2018-01-23_14:09,3,215,99,37_Caucasian_female_neutral_right.jpg,99,cue_right,target_F,target_right,cue_1,500ms,correct,0.4867160599678755
mGCP-III,38,2018-01-23_14:09,3,216,99,61_Caucasian_female_neutral_left.jpg,99,cue_left,target_F,target_right,cue_1,200ms,correct,0.6756763057783246
mGCP-III,38,2018-01-23_14:09,3,217,99,26_Caucasian_female_neutral_left.jpg,99,cue_left,target_E,target_right,cue_1,200ms,correct,0.5419934482779354
mGCP-III,38,2018-01-23_14:09,3,218,99,61_Caucasian_female_neutral_left.jpg,99,cue_left,target_E,target_right,cue_1,200ms,correct,0.5583158058580011
mGCP-III,38,2018-01-23_14:09,3,219,99,26_Caucasian_female_neutral_right.jpg,99,cue_right,target_F,target_left,cue_1,200ms,correct,0.5734944604337215
mGCP-III,38,2018-01-23_14:09,3,220,99,37_Caucasian_female_neutral_right.jpg,99,cue_right,target_E,target_left,cue_1,500ms,incorrect,0.5247233384288847
mGCP-III,38,2018-01-23_14:09,3,221,99,61_Caucasian_female_neutral_left.jpg,99,cue_left,target_E,target_left,cue_1,500ms,99,99
mGCP-III,38,2018-01-23_14:10,3,222,99,61_Caucasian_female_neutral_right.jpg,99,cue_right,target_F,target_left,cue_1,500ms,correct,0.5539685499388725
mGCP-III,38,2018-01-23_14:10,3,223,99,26_Caucasian_female_neutral_left.jpg,99,cue_left,target_F,target_right,cue_1,200ms,correct,0.44979717559181154
mGCP-III,38,2018-01-23_14:10,3,224,99,37_Caucasian_female_neutral_right.jpg,99,cue_right,target_E,target_left,cue_1,200ms,correct,0.5020432577002794
mGCP-III,38,2018-01-23_14:10,3,225,99,61_Caucasian_female_neutral_left.jpg,99,cue_left,target_E,target_right,cue_1,500ms,correct,0.5605755571741611
mGCP-III,38,2018-01-23_14:10,3,226,99,61_Caucasian_female_neutral_right.jpg,99,cue_right,target_F,target_left,cue_1,200ms,correct,0.5890626457985491
mGCP-III,38,2018-01-23_14:10,3,227,99,26_Caucasian_female_neutral_left.jpg,99,cue_left,target_F,target_left,cue_1,500ms,correct,0.509564041858539
mGCP-III,38,2018-01-23_14:10,3,228,99,26_Caucasian_female_neutral_right.jpg,99,cue_right,target_E,target_right,cue_1,200ms,correct,0.5328667394351214
mGCP-III,38,2018-01-23_14:10,3,229,99,37_Caucasian_female_neutral_right.jpg,99,cue_right,target_E,target_right,cue_1,200ms,correct,0.541725596645847
mGCP-III,38,2018-01-23_14:10,3,230,99,61_Caucasian_female_neutral_right.jpg,99,cue_right,target_E,target_right,cue_1,200ms,correct,0.4462771783582866
mGCP-III,38,2018-01-23_14:10,3,231,99,26_Caucasian_female_neutral_left.jpg,99,cue_left,target_E,target_right,cue_1,500ms,incorrect,0.4880723056849092
mGCP-III,38,2018-01-23_14:10,3,232,99,26_Caucasian_female_neutral_right.jpg,99,cue_right,target_F,target_left,cue_1,500ms,correct,0.4968722986523062
mGCP-III,38,2018-01-23_14:10,3,233,99,26_Caucasian_female_neutral_right.jpg,99,cue_right,target_E,target_right,cue_1,200ms,correct,0.5319051600527018
mGCP-III,38,2018-01-23_14:10,3,234,99,37_Caucasian_female_neutral_left.jpg,99,cue_left,target_F,target_left,cue_1,500ms,correct,0.36906993039883673
mGCP-III,38,2018-01-23_14:10,3,235,99,61_Caucasian_female_neutral_left.jpg,99,cue_left,target_E,target_left,cue_1,200ms,correct,0.6654856964014471
mGCP-III,38,2018-01-23_14:10,3,236,99,37_Caucasian_female_neutral_left.jpg,99,cue_left,target_F,target_left,cue_1,200ms,correct,0.5410125108901411
mGCP-III,38,2018-01-23_14:10,3,237,99,37_Caucasian_female_neutral_left.jpg,99,cue_left,target_E,target_left,cue_1,200ms,correct,0.5756447797175497
mGCP-III,38,2018-01-23_14:10,3,238,99,37_Caucasian_female_neutral_right.jpg,99,cue_right,target_F,target_left,cue_1,200ms,correct,0.596564071951434
mGCP-III,38,2018-01-23_14:10,3,239,99,26_Caucasian_female_neutral_left.jpg,99,cue_left,target_E,target_left,cue_1,500ms,correct,0.45585662755183876
mGCP-III,38,2018-01-23_14:10,3,240,99,61_Caucasian_female_neutral_left.jpg,99,cue_left,target_F,target_right,cue_1,200ms,correct,0.49477412761189044
mGCP-III,38,2018-01-23_14:10,3,241,99,37_Caucasian_female_neutral_right.jpg,99,cue_right,target_F,target_right,cue_1,200ms,correct,0.4729951818007976
mGCP-III,38,2018-01-23_14:10,3,242,99,37_Caucasian_female_neutral_left.jpg,99,cue_left,target_E,target_left,cue_1,500ms,correct,0.465930693782866
mGCP-III,38,2018-01-23_14:10,3,243,99,61_Caucasian_female_neutral_left.jpg,99,cue_left,target_E,target_left,cue_1,500ms,correct,0.4122355261351913
mGCP-III,38,2018-01-23_14:10,3,244,99,26_Caucasian_female_neutral_left.jpg,99,cue_left,target_E,target_left,cue_1,200ms,correct,0.42534642945975065
mGCP-III,38,2018-01-23_14:10,3,245,99,61_Caucasian_female_neutral_left.jpg,99,cue_left,target_E,target_right,cue_1,200ms,correct,0.5291255076881498
mGCP-III,38,2018-01-23_14:10,3,246,99,37_Caucasian_female_neutral_left.jpg,99,cue_left,target_E,target_left,cue_1,500ms,correct,0.36785827740095556
mGCP-III,38,2018-01-23_14:10,3,247,99,61_Caucasian_female_neutral_right.jpg,99,cue_right,target_E,target_left,cue_1,500ms,correct,0.4589961804449558
mGCP-III,38,2018-01-23_14:10,3,248,99,26_Caucasian_female_neutral_left.jpg,99,cue_left,target_F,target_right,cue_1,200ms,correct,0.4738485144916922
mGCP-III,38,2018-01-23_14:10,3,249,99,37_Caucasian_female_neutral_right.jpg,99,cue_right,target_E,target_left,cue_1,200ms,correct,0.5600422241259366
mGCP-III,38,2018-01-23_14:10,3,250,99,26_Caucasian_female_neutral_left.jpg,99,cue_left,target_E,target_left,cue_1,200ms,correct,0.44871944771148264
mGCP-III,38,2018-01-23_14:10,3,251,99,26_Caucasian_female_neutral_left.jpg,99,cue_left,target_E,target_left,cue_1,500ms,correct,0.39322398556396365
mGCP-III,38,2018-01-23_14:10,3,252,99,37_Caucasian_female_neutral_right.jpg,99,cue_right,target_E,target_right,cue_1,500ms,correct,0.4878807009663433
mGCP-III,38,2018-01-23_14:10,3,253,99,37_Caucasian_female_neutral_left.jpg,99,cue_left,target_F,target_right,cue_1,200ms,correct,0.4881868737284094
mGCP-III,38,2018-01-23_14:10,3,254,99,37_Caucasian_female_neutral_right.jpg,99,cue_right,target_E,target_left,cue_1,500ms,correct,0.3769407393410802
mGCP-III,38,2018-01-23_14:11,3,255,99,26_Caucasian_female_neutral_right.jpg,99,cue_right,target_E,target_left,cue_1,200ms,correct,0.42001349525526166
mGCP-III,38,2018-01-23_14:11,3,256,99,37_Caucasian_female_neutral_left.jpg,99,cue_left,target_E,target_right,cue_1,500ms,correct,0.6802305737510324
mGCP-III,38,2018-01-23_14:11,3,257,99,37_Caucasian_female_neutral_left.jpg,99,cue_left,target_F,target_right,cue_1,500ms,correct,0.5636846902780235
mGCP-III,38,2018-01-23_14:11,3,258,99,61_Caucasian_female_neutral_right.jpg,99,cue_right,target_F,target_right,cue_1,200ms,correct,0.6691099898889661
mGCP-III,38,2018-01-23_14:11,3,259,99,61_Caucasian_female_neutral_right.jpg,99,cue_right,target_E,target_right,cue_1,500ms,correct,0.6166794139426202
mGCP-III,38,2018-01-23_14:11,3,260,99,61_Caucasian_female_neutral_left.jpg,99,cue_left,target_F,target_left,cue_1,500ms,correct,0.47264634259045124
mGCP-III,38,2018-01-23_14:11,3,261,99,61_Caucasian_female_neutral_right.jpg,99,cue_right,target_E,target_right,cue_1,500ms,correct,0.5468214938882738
mGCP-III,38,2018-01-23_14:11,3,262,99,61_Caucasian_female_neutral_left.jpg,99,cue_left,target_E,target_right,cue_1,500ms,correct,0.46707676677033305
mGCP-III,38,2018-01-23_14:11,3,263,99,26_Caucasian_female_neutral_left.jpg,99,cue_left,target_F,target_right,cue_1,500ms,correct,0.5211369709577411
mGCP-III,38,2018-01-23_14:11,3,264,99,61_Caucasian_female_neutral_left.jpg,99,cue_left,target_F,target_left,cue_1,200ms,correct,0.6334493760950863
mGCP-III,38,2018-01-23_14:11,3,265,99,37_Caucasian_female_neutral_right.jpg,99,cue_right,target_F,target_left,cue_1,500ms,correct,0.5248951902613044
mGCP-III,38,2018-01-23_14:11,3,266,99,61_Caucasian_female_neutral_left.jpg,99,cue_left,target_F,target_right,cue_1,500ms,correct,0.4394548626150936
mGCP-III,38,2018-01-23_14:11,3,267,99,61_Caucasian_female_neutral_left.jpg,99,cue_left,target_E,target_left,cue_1,200ms,correct,0.5486581344157457
mGCP-III,38,2018-01-23_14:11,3,268,99,37_Caucasian_female_neutral_left.jpg,99,cue_left,target_F,target_left,cue_1,200ms,correct,0.664267327170819
mGCP-III,38,2018-01-23_14:11,3,269,99,61_Caucasian_female_neutral_right.jpg,99,cue_right,target_E,target_left,cue_1,200ms,correct,0.5051907119341195
mGCP-III,38,2018-01-23_14:11,3,270,99,37_Caucasian_female_neutral_left.jpg,99,cue_left,target_E,target_right,cue_1,500ms,correct,0.625347061548382
mGCP-III,38,2018-01-23_14:11,3,271,99,26_Caucasian_female_neutral_right.jpg,99,cue_right,target_F,target_right,cue_1,200ms,correct,0.42738850181922317
mGCP-III,38,2018-01-23_14:11,3,272,99,61_Caucasian_female_neutral_left.jpg,99,cue_left,target_F,target_right,cue_1,500ms,correct,0.5876716342754662
mGCP-III,38,2018-01-23_14:11,3,273,99,26_Caucasian_female_neutral_right.jpg,99,cue_right,target_E,target_right,cue_1,500ms,correct,0.6485509937629104
mGCP-III,38,2018-01-23_14:11,3,274,99,61_Caucasian_female_neutral_right.jpg,99,cue_right,target_E,target_right,cue_1,200ms,correct,0.47829532576724887
mGCP-III,38,2018-01-23_14:11,3,275,99,61_Caucasian_female_neutral_right.jpg,99,cue_right,target_E,target_left,cue_1,200ms,correct,0.5646292823366821
mGCP-III,38,2018-01-23_14:11,3,276,99,26_Caucasian_female_neutral_right.jpg,99,cue_right,target_F,target_left,cue_1,500ms,correct,0.616675068391487
mGCP-III,38,2018-01-23_14:11,3,277,99,37_Caucasian_female_neutral_right.jpg,99,cue_right,target_F,target_right,cue_1,500ms,correct,0.5796842826530337
mGCP-III,38,2018-01-23_14:11,3,278,99,26_Caucasian_female_neutral_left.jpg,99,cue_left,target_F,target_left,cue_1,200ms,correct,0.6356680409517139
mGCP-III,38,2018-01-23_14:11,3,279,99,26_Caucasian_female_neutral_right.jpg,99,cue_right,target_E,target_left,cue_1,200ms,correct,0.5402733508963138
mGCP-III,38,2018-01-23_14:11,3,280,99,37_Caucasian_female_neutral_right.jpg,99,cue_right,target_F,target_right,cue_1,200ms,correct,0.4749404643662274
mGCP-III,38,2018-01-23_14:11,3,281,99,61_Caucasian_female_neutral_right.jpg,99,cue_right,target_F,target_left,cue_1,500ms,correct,0.5821925275959074
mGCP-III,38,2018-01-23_14:11,3,282,99,26_Caucasian_female_neutral_right.jpg,99,cue_right,target_E,target_left,cue_1,500ms,correct,0.6334833514411002
mGCP-III,38,2018-01-23_14:11,3,283,99,61_Caucasian_female_neutral_left.jpg,99,cue_left,target_F,target_left,cue_1,200ms,99,99
mGCP-III,38,2018-01-23_14:12,3,284,99,37_Caucasian_female_neutral_right.jpg,99,cue_right,target_F,target_left,cue_1,500ms,correct,0.5129189034923911
mGCP-III,38,2018-01-23_14:12,3,285,99,26_Caucasian_female_neutral_left.jpg,99,cue_left,target_F,target_right,cue_1,500ms,correct,0.4770532527472824
mGCP-III,38,2018-01-23_14:12,3,286,99,37_Caucasian_female_neutral_left.jpg,99,cue_left,target_F,target_right,cue_1,200ms,correct,0.49768494023010135
mGCP-III,38,2018-01-23_14:12,3,287,99,26_Caucasian_female_neutral_left.jpg,99,cue_left,target_E,target_right,cue_1,500ms,correct,0.5340736522339284
mGCP-III,38,2018-01-23_14:12,3,288,99,26_Caucasian_female_neutral_right.jpg,99,cue_right,target_F,target_right,cue_1,500ms,correct,0.36053146817721426
mGCP-III,38,2018-01-23_14:12,4,289,37_Caucasian_female_neutral_right.jpg,61_Caucasian_female_neutral_right.jpg,26_Caucasian_female_neutral_right.jpg,cue_right,target_F,target_left,cue_3,500ms,correct,0.517410751665011
mGCP-III,38,2018-01-23_14:12,4,290,26_Caucasian_female_neutral_right.jpg,37_Caucasian_female_neutral_right.jpg,61_Caucasian_female_neutral_right.jpg,cue_right,target_E,target_right,cue_3,200ms,correct,0.5005171354860067
mGCP-III,38,2018-01-23_14:12,4,291,61_Caucasian_female_neutral_right.jpg,26_Caucasian_female_neutral_right.jpg,37_Caucasian_female_neutral_right.jpg,cue_right,target_F,target_left,cue_3,500ms,correct,0.5216699086595327
mGCP-III,38,2018-01-23_14:12,4,292,61_Caucasian_female_neutral_right.jpg,37_Caucasian_female_neutral_right.jpg,26_Caucasian_female_neutral_right.jpg,cue_right,target_E,target_left,cue_3,500ms,correct,0.5628278022632003
mGCP-III,38,2018-01-23_14:12,4,293,61_Caucasian_female_neutral_right.jpg,37_Caucasian_female_neutral_right.jpg,26_Caucasian_female_neutral_right.jpg,cue_right,target_E,target_right,cue_3,200ms,correct,0.6227760016918182
mGCP-III,38,2018-01-23_14:12,4,294,61_Caucasian_female_neutral_left.jpg,37_Caucasian_female_neutral_left.jpg,26_Caucasian_female_neutral_left.jpg,cue_left,target_F,target_left,cue_3,500ms,correct,0.4365811860188842
mGCP-III,38,2018-01-23_14:12,4,295,37_Caucasian_female_neutral_right.jpg,26_Caucasian_female_neutral_right.jpg,61_Caucasian_female_neutral_right.jpg,cue_right,target_F,target_right,cue_3,200ms,correct,0.527423978317529
mGCP-III,38,2018-01-23_14:12,4,296,61_Caucasian_female_neutral_right.jpg,26_Caucasian_female_neutral_right.jpg,37_Caucasian_female_neutral_right.jpg,cue_right,target_E,target_left,cue_3,200ms,correct,0.5300278281792998
mGCP-III,38,2018-01-23_14:12,4,297,61_Caucasian_female_neutral_left.jpg,37_Caucasian_female_neutral_left.jpg,26_Caucasian_female_neutral_left.jpg,cue_left,target_E,target_right,cue_3,200ms,correct,0.6195147698745131
mGCP-III,38,2018-01-23_14:12,4,298,26_Caucasian_female_neutral_left.jpg,37_Caucasian_female_neutral_left.jpg,61_Caucasian_female_neutral_left.jpg,cue_left,target_E,target_left,cue_3,500ms,correct,0.4462748079095036
mGCP-III,38,2018-01-23_14:12,4,299,26_Caucasian_female_neutral_right.jpg,61_Caucasian_female_neutral_right.jpg,37_Caucasian_female_neutral_right.jpg,cue_right,target_F,target_left,cue_3,200ms,incorrect,0.5197451694402844
mGCP-III,38,2018-01-23_14:12,4,300,37_Caucasian_female_neutral_left.jpg,61_Caucasian_female_neutral_left.jpg,26_Caucasian_female_neutral_left.jpg,cue_left,target_E,target_right,cue_3,500ms,correct,0.5752765825018287
mGCP-III,38,2018-01-23_14:12,4,301,26_Caucasian_female_neutral_left.jpg,61_Caucasian_female_neutral_left.jpg,37_Caucasian_female_neutral_left.jpg,cue_left,target_E,target_right,cue_3,200ms,correct,0.48072139802388847
mGCP-III,38,2018-01-23_14:12,4,302,61_Caucasian_female_neutral_left.jpg,37_Caucasian_female_neutral_left.jpg,26_Caucasian_female_neutral_left.jpg,cue_left,target_F,target_left,cue_3,200ms,correct,0.46197968441993
mGCP-III,38,2018-01-23_14:12,4,303,37_Caucasian_female_neutral_right.jpg,61_Caucasian_female_neutral_right.jpg,26_Caucasian_female_neutral_right.jpg,cue_right,target_E,target_right,cue_3,500ms,correct,0.3887700631748885
mGCP-III,38,2018-01-23_14:12,4,304,26_Caucasian_female_neutral_right.jpg,37_Caucasian_female_neutral_right.jpg,61_Caucasian_female_neutral_right.jpg,cue_right,target_E,target_left,cue_3,200ms,correct,0.5499306272249669
mGCP-III,38,2018-01-23_14:12,4,305,26_Caucasian_female_neutral_right.jpg,37_Caucasian_female_neutral_right.jpg,61_Caucasian_female_neutral_right.jpg,cue_right,target_F,target_left,cue_3,200ms,correct,0.5956451590172946
mGCP-III,38,2018-01-23_14:12,4,306,37_Caucasian_female_neutral_left.jpg,26_Caucasian_female_neutral_left.jpg,61_Caucasian_female_neutral_left.jpg,cue_left,target_F,target_left,cue_3,500ms,correct,0.46974935731850564
mGCP-III,38,2018-01-23_14:12,4,307,37_Caucasian_female_neutral_right.jpg,61_Caucasian_female_neutral_right.jpg,26_Caucasian_female_neutral_right.jpg,cue_right,target_E,target_left,cue_3,200ms,correct,0.5044282434973866
mGCP-III,38,2018-01-23_14:12,4,308,37_Caucasian_female_neutral_left.jpg,61_Caucasian_female_neutral_left.jpg,26_Caucasian_female_neutral_left.jpg,cue_left,target_F,target_right,cue_3,200ms,correct,0.45822541578672826
mGCP-III,38,2018-01-23_14:12,4,309,61_Caucasian_female_neutral_right.jpg,37_Caucasian_female_neutral_right.jpg,26_Caucasian_female_neutral_right.jpg,cue_right,target_E,target_left,cue_3,200ms,correct,0.5627084937877953
mGCP-III,38,2018-01-23_14:12,4,310,61_Caucasian_female_neutral_left.jpg,37_Caucasian_female_neutral_left.jpg,26_Caucasian_female_neutral_left.jpg,cue_left,target_E,target_left,cue_3,500ms,correct,0.4069488141685724
mGCP-III,38,2018-01-23_14:12,4,311,26_Caucasian_female_neutral_left.jpg,61_Caucasian_female_neutral_left.jpg,37_Caucasian_female_neutral_left.jpg,cue_left,target_F,target_right,cue_3,500ms,correct,0.47068841801956296
mGCP-III,38,2018-01-23_14:12,4,312,37_Caucasian_female_neutral_right.jpg,26_Caucasian_female_neutral_right.jpg,61_Caucasian_female_neutral_right.jpg,cue_right,target_F,target_right,cue_3,500ms,correct,0.406024765688926
mGCP-III,38,2018-01-23_14:13,4,313,37_Caucasian_female_neutral_right.jpg,61_Caucasian_female_neutral_right.jpg,26_Caucasian_female_neutral_right.jpg,cue_right,target_E,target_right,cue_3,200ms,correct,0.5518040084280074
mGCP-III,38,2018-01-23_14:13,4,314,61_Caucasian_female_neutral_right.jpg,26_Caucasian_female_neutral_right.jpg,37_Caucasian_female_neutral_right.jpg,cue_right,target_E,target_left,cue_3,500ms,correct,0.7601021155714989
mGCP-III,38,2018-01-23_14:13,4,315,26_Caucasian_female_neutral_right.jpg,61_Caucasian_female_neutral_right.jpg,37_Caucasian_female_neutral_right.jpg,cue_right,target_E,target_left,cue_3,500ms,correct,0.44885455910116434
mGCP-III,38,2018-01-23_14:13,4,316,37_Caucasian_female_neutral_left.jpg,26_Caucasian_female_neutral_left.jpg,61_Caucasian_female_neutral_left.jpg,cue_left,target_E,target_left,cue_3,500ms,correct,0.43435303936712444
mGCP-III,38,2018-01-23_14:13,4,317,61_Caucasian_female_neutral_left.jpg,26_Caucasian_female_neutral_left.jpg,37_Caucasian_female_neutral_left.jpg,cue_left,target_F,target_right,cue_3,500ms,correct,0.49662380502559245
mGCP-III,38,2018-01-23_14:13,4,318,26_Caucasian_female_neutral_left.jpg,61_Caucasian_female_neutral_left.jpg,37_Caucasian_female_neutral_left.jpg,cue_left,target_E,target_left,cue_3,200ms,correct,0.7059143064543605
mGCP-III,38,2018-01-23_14:13,4,319,26_Caucasian_female_neutral_right.jpg,61_Caucasian_female_neutral_right.jpg,37_Caucasian_female_neutral_right.jpg,cue_right,target_E,target_left,cue_3,200ms,correct,0.5483855418860912
mGCP-III,38,2018-01-23_14:13,4,320,37_Caucasian_female_neutral_left.jpg,26_Caucasian_female_neutral_left.jpg,61_Caucasian_female_neutral_left.jpg,cue_left,target_F,target_left,cue_3,200ms,incorrect,0.3950953914318234
mGCP-III,38,2018-01-23_14:13,4,321,26_Caucasian_female_neutral_left.jpg,37_Caucasian_female_neutral_left.jpg,61_Caucasian_female_neutral_left.jpg,cue_left,target_F,target_left,cue_3,500ms,correct,0.540706338128075
mGCP-III,38,2018-01-23_14:13,4,322,61_Caucasian_female_neutral_left.jpg,26_Caucasian_female_neutral_left.jpg,37_Caucasian_female_neutral_left.jpg,cue_left,target_E,target_right,cue_3,500ms,correct,0.5753307058475912
mGCP-III,38,2018-01-23_14:13,4,323,37_Caucasian_female_neutral_left.jpg,61_Caucasian_female_neutral_left.jpg,26_Caucasian_female_neutral_left.jpg,cue_left,target_F,target_left,cue_3,500ms,correct,0.5694162414874882
mGCP-III,38,2018-01-23_14:13,4,324,37_Caucasian_female_neutral_left.jpg,61_Caucasian_female_neutral_left.jpg,26_Caucasian_female_neutral_left.jpg,cue_left,target_E,target_left,cue_3,500ms,correct,0.6284016764257103
mGCP-III,38,2018-01-23_14:13,4,325,26_Caucasian_female_neutral_right.jpg,37_Caucasian_female_neutral_right.jpg,61_Caucasian_female_neutral_right.jpg,cue_right,target_E,target_right,cue_3,500ms,correct,0.6248528396245092
mGCP-III,38,2018-01-23_14:13,4,326,26_Caucasian_female_neutral_left.jpg,37_Caucasian_female_neutral_left.jpg,61_Caucasian_female_neutral_left.jpg,cue_left,target_F,target_right,cue_3,200ms,correct,0.5387021915521473
mGCP-III,38,2018-01-23_14:13,4,327,26_Caucasian_female_neutral_right.jpg,37_Caucasian_female_neutral_right.jpg,61_Caucasian_female_neutral_right.jpg,cue_right,target_F,target_right,cue_3,200ms,correct,0.7232057496439666
mGCP-III,38,2018-01-23_14:13,4,328,61_Caucasian_female_neutral_right.jpg,26_Caucasian_female_neutral_right.jpg,37_Caucasian_female_neutral_right.jpg,cue_right,target_E,target_right,cue_3,500ms,correct,0.5469372468069196
mGCP-III,38,2018-01-23_14:13,4,329,26_Caucasian_female_neutral_right.jpg,61_Caucasian_female_neutral_right.jpg,37_Caucasian_female_neutral_right.jpg,cue_right,target_F,target_right,cue_3,200ms,correct,0.42339561600238085
mGCP-III,38,2018-01-23_14:13,4,330,61_Caucasian_female_neutral_left.jpg,26_Caucasian_female_neutral_left.jpg,37_Caucasian_female_neutral_left.jpg,cue_left,target_F,target_right,cue_3,200ms,correct,0.5034962934441864
mGCP-III,38,2018-01-23_14:13,4,331,61_Caucasian_female_neutral_right.jpg,26_Caucasian_female_neutral_right.jpg,37_Caucasian_female_neutral_right.jpg,cue_right,target_F,target_right,cue_3,200ms,correct,0.3685437086969614
mGCP-III,38,2018-01-23_14:13,4,332,61_Caucasian_female_neutral_left.jpg,26_Caucasian_female_neutral_left.jpg,37_Caucasian_female_neutral_left.jpg,cue_left,target_F,target_left,cue_3,200ms,correct,0.4799028306733817
mGCP-III,38,2018-01-23_14:13,4,333,37_Caucasian_female_neutral_right.jpg,26_Caucasian_female_neutral_right.jpg,61_Caucasian_female_neutral_right.jpg,cue_right,target_E,target_left,cue_3,200ms,correct,0.5611653837841004
mGCP-III,38,2018-01-23_14:13,4,334,37_Caucasian_female_neutral_right.jpg,26_Caucasian_female_neutral_right.jpg,61_Caucasian_female_neutral_right.jpg,cue_right,target_F,target_left,cue_3,500ms,correct,0.5295316309202462
mGCP-III,38,2018-01-23_14:13,4,335,61_Caucasian_female_neutral_left.jpg,37_Caucasian_female_neutral_left.jpg,26_Caucasian_female_neutral_left.jpg,cue_left,target_F,target_right,cue_3,500ms,incorrect,0.31119540822692215
mGCP-III,38,2018-01-23_14:13,4,336,61_Caucasian_female_neutral_left.jpg,37_Caucasian_female_neutral_left.jpg,26_Caucasian_female_neutral_left.jpg,cue_left,target_F,target_right,cue_3,200ms,correct,0.5488821342587471
mGCP-III,38,2018-01-23_14:13,4,337,37_Caucasian_female_neutral_right.jpg,61_Caucasian_female_neutral_right.jpg,26_Caucasian_female_neutral_right.jpg,cue_right,target_F,target_right,cue_3,200ms,correct,0.31168054370209575
mGCP-III,38,2018-01-23_14:13,4,338,26_Caucasian_female_neutral_left.jpg,61_Caucasian_female_neutral_left.jpg,37_Caucasian_female_neutral_left.jpg,cue_left,target_F,target_right,cue_3,200ms,correct,0.37019901629537344
mGCP-III,38,2018-01-23_14:13,4,339,37_Caucasian_female_neutral_left.jpg,61_Caucasian_female_neutral_left.jpg,26_Caucasian_female_neutral_left.jpg,cue_left,target_F,target_left,cue_3,200ms,correct,0.5320505425333977
mGCP-III,38,2018-01-23_14:13,4,340,61_Caucasian_female_neutral_left.jpg,26_Caucasian_female_neutral_left.jpg,37_Caucasian_female_neutral_left.jpg,cue_left,target_E,target_right,cue_3,200ms,correct,0.5989802675321698
mGCP-III,38,2018-01-23_14:13,4,341,37_Caucasian_female_neutral_left.jpg,26_Caucasian_female_neutral_left.jpg,61_Caucasian_female_neutral_left.jpg,cue_left,target_E,target_left,cue_3,200ms,correct,0.5324665422085673
mGCP-III,38,2018-01-23_14:13,4,342,26_Caucasian_female_neutral_left.jpg,61_Caucasian_female_neutral_left.jpg,37_Caucasian_female_neutral_left.jpg,cue_left,target_E,target_left,cue_3,500ms,correct,0.4627172639593482
mGCP-III,38,2018-01-23_14:13,4,343,37_Caucasian_female_neutral_right.jpg,61_Caucasian_female_neutral_right.jpg,26_Caucasian_female_neutral_right.jpg,cue_right,target_F,target_right,cue_3,500ms,correct,0.39805519161745906
mGCP-III,38,2018-01-23_14:14,4,344,26_Caucasian_female_neutral_left.jpg,37_Caucasian_female_neutral_left.jpg,61_Caucasian_female_neutral_left.jpg,cue_left,target_E,target_right,cue_3,500ms,correct,0.6145618848968297
mGCP-III,38,2018-01-23_14:14,4,345,26_Caucasian_female_neutral_right.jpg,37_Caucasian_female_neutral_right.jpg,61_Caucasian_female_neutral_right.jpg,cue_right,target_F,target_right,cue_3,500ms,correct,0.4273418844677508
mGCP-III,38,2018-01-23_14:14,4,346,37_Caucasian_female_neutral_left.jpg,61_Caucasian_female_neutral_left.jpg,26_Caucasian_female_neutral_left.jpg,cue_left,target_F,target_right,cue_3,500ms,correct,0.4407640960998833
mGCP-III,38,2018-01-23_14:14,4,347,37_Caucasian_female_neutral_left.jpg,26_Caucasian_female_neutral_left.jpg,61_Caucasian_female_neutral_left.jpg,cue_left,target_F,target_right,cue_3,500ms,correct,0.29765151790343225
mGCP-III,38,2018-01-23_14:14,4,348,37_Caucasian_female_neutral_right.jpg,26_Caucasian_female_neutral_right.jpg,61_Caucasian_female_neutral_right.jpg,cue_right,target_F,target_left,cue_3,200ms,correct,0.459966451395303
mGCP-III,38,2018-01-23_14:14,4,349,37_Caucasian_female_neutral_left.jpg,26_Caucasian_female_neutral_left.jpg,61_Caucasian_female_neutral_left.jpg,cue_left,target_E,target_right,cue_3,500ms,incorrect,0.2850079722702503
mGCP-III,38,2018-01-23_14:14,4,350,37_Caucasian_female_neutral_right.jpg,61_Caucasian_female_neutral_right.jpg,26_Caucasian_female_neutral_right.jpg,cue_right,target_F,target_left,cue_3,200ms,correct,0.6765873171389103
mGCP-III,38,2018-01-23_14:14,4,351,37_Caucasian_female_neutral_left.jpg,61_Caucasian_female_neutral_left.jpg,26_Caucasian_female_neutral_left.jpg,cue_left,target_E,target_right,cue_3,200ms,correct,0.48780563939362764
mGCP-III,38,2018-01-23_14:14,4,352,26_Caucasian_female_neutral_right.jpg,61_Caucasian_female_neutral_right.jpg,37_Caucasian_female_neutral_right.jpg,cue_right,target_F,target_left,cue_3,500ms,correct,0.7116675858851522
mGCP-III,38,2018-01-23_14:14,4,353,26_Caucasian_female_neutral_left.jpg,61_Caucasian_female_neutral_left.jpg,37_Caucasian_female_neutral_left.jpg,cue_left,target_F,target_left,cue_3,200ms,correct,0.5034180714283139
mGCP-III,38,2018-01-23_14:14,4,354,26_Caucasian_female_neutral_right.jpg,61_Caucasian_female_neutral_right.jpg,37_Caucasian_female_neutral_right.jpg,cue_right,target_F,target_right,cue_3,500ms,correct,0.4778433754108846
mGCP-III,38,2018-01-23_14:14,4,355,26_Caucasian_female_neutral_right.jpg,37_Caucasian_female_neutral_right.jpg,61_Caucasian_female_neutral_right.jpg,cue_right,target_E,target_left,cue_3,500ms,correct,0.6078008036129177
mGCP-III,38,2018-01-23_14:14,4,356,61_Caucasian_female_neutral_right.jpg,26_Caucasian_female_neutral_right.jpg,37_Caucasian_female_neutral_right.jpg,cue_right,target_F,target_left,cue_3,200ms,correct,0.4915128955617547
mGCP-III,38,2018-01-23_14:14,4,357,61_Caucasian_female_neutral_left.jpg,37_Caucasian_female_neutral_left.jpg,26_Caucasian_female_neutral_left.jpg,cue_left,target_E,target_left,cue_3,200ms,correct,0.5514646505471319
mGCP-III,38,2018-01-23_14:14,4,358,26_Caucasian_female_neutral_left.jpg,37_Caucasian_female_neutral_left.jpg,61_Caucasian_female_neutral_left.jpg,cue_left,target_F,target_right,cue_3,500ms,correct,0.5814999849535525
mGCP-III,38,2018-01-23_14:14,4,359,26_Caucasian_female_neutral_right.jpg,37_Caucasian_female_neutral_right.jpg,61_Caucasian_female_neutral_right.jpg,cue_right,target_F,target_left,cue_3,500ms,correct,0.5235365740954876
mGCP-III,38,2018-01-23_14:14,4,360,61_Caucasian_female_neutral_right.jpg,26_Caucasian_female_neutral_right.jpg,37_Caucasian_female_neutral_right.jpg,cue_right,target_F,target_right,cue_3,500ms,correct,0.47125691175460815
mGCP-III,38,2018-01-23_14:14,4,361,61_Caucasian_female_neutral_left.jpg,26_Caucasian_female_neutral_left.jpg,37_Caucasian_female_neutral_left.jpg,cue_left,target_F,target_left,cue_3,500ms,correct,0.43540587835013866
mGCP-III,38,2018-01-23_14:14,4,362,26_Caucasian_female_neutral_left.jpg,61_Caucasian_female_neutral_left.jpg,37_Caucasian_female_neutral_left.jpg,cue_left,target_F,target_left,cue_3,500ms,correct,0.35698263137601316
mGCP-III,38,2018-01-23_14:14,4,363,37_Caucasian_female_neutral_right.jpg,26_Caucasian_female_neutral_right.jpg,61_Caucasian_female_neutral_right.jpg,cue_right,target_E,target_right,cue_3,500ms,correct,0.41118940338492393
mGCP-III,38,2018-01-23_14:14,4,364,37_Caucasian_female_neutral_right.jpg,26_Caucasian_female_neutral_right.jpg,61_Caucasian_female_neutral_right.jpg,cue_right,target_E,target_right,cue_3,200ms,correct,0.6891731838695705
mGCP-III,38,2018-01-23_14:14,4,365,26_Caucasian_female_neutral_left.jpg,37_Caucasian_female_neutral_left.jpg,61_Caucasian_female_neutral_left.jpg,cue_left,target_E,target_right,cue_3,200ms,correct,0.5426539909094572
mGCP-III,38,2018-01-23_14:14,4,366,37_Caucasian_female_neutral_right.jpg,26_Caucasian_female_neutral_right.jpg,61_Caucasian_female_neutral_right.jpg,cue_right,target_E,target_left,cue_3,500ms,correct,0.6217196073848754
mGCP-III,38,2018-01-23_14:14,4,367,37_Caucasian_female_neutral_left.jpg,61_Caucasian_female_neutral_left.jpg,26_Caucasian_female_neutral_left.jpg,cue_left,target_E,target_left,cue_3,200ms,correct,0.38277342612855136
mGCP-III,38,2018-01-23_14:14,4,368,61_Caucasian_female_neutral_left.jpg,37_Caucasian_female_neutral_left.jpg,26_Caucasian_female_neutral_left.jpg,cue_left,target_E,target_right,cue_3,500ms,correct,0.4566028986591846
mGCP-III,38,2018-01-23_14:14,4,369,26_Caucasian_female_neutral_left.jpg,61_Caucasian_female_neutral_left.jpg,37_Caucasian_female_neutral_left.jpg,cue_left,target_E,target_right,cue_3,500ms,correct,0.4587445263750851
mGCP-III,38,2018-01-23_14:14,4,370,61_Caucasian_female_neutral_left.jpg,26_Caucasian_female_neutral_left.jpg,37_Caucasian_female_neutral_left.jpg,cue_left,target_E,target_left,cue_3,200ms,correct,0.4258627744857222
mGCP-III,38,2018-01-23_14:14,4,371,26_Caucasian_female_neutral_right.jpg,61_Caucasian_female_neutral_right.jpg,37_Caucasian_female_neutral_right.jpg,cue_right,target_E,target_right,cue_3,500ms,correct,0.4205033713951707
mGCP-III,38,2018-01-23_14:14,4,372,61_Caucasian_female_neutral_right.jpg,37_Caucasian_female_neutral_right.jpg,26_Caucasian_female_neutral_right.jpg,cue_right,target_F,target_right,cue_3,500ms,incorrect,0.35366332554258406
mGCP-III,38,2018-01-23_14:14,4,373,61_Caucasian_female_neutral_right.jpg,37_Caucasian_female_neutral_right.jpg,26_Caucasian_female_neutral_right.jpg,cue_right,target_F,target_left,cue_3,200ms,correct,0.4991521982010454
mGCP-III,38,2018-01-23_14:14,4,374,61_Caucasian_female_neutral_right.jpg,37_Caucasian_female_neutral_right.jpg,26_Caucasian_female_neutral_right.jpg,cue_right,target_F,target_left,cue_3,500ms,correct,0.4481517446693033
mGCP-III,38,2018-01-23_14:15,4,375,37_Caucasian_female_neutral_left.jpg,26_Caucasian_female_neutral_left.jpg,61_Caucasian_female_neutral_left.jpg,cue_left,target_F,target_right,cue_3,200ms,correct,0.48994134133681655
mGCP-III,38,2018-01-23_14:15,4,376,61_Caucasian_female_neutral_right.jpg,37_Caucasian_female_neutral_right.jpg,26_Caucasian_female_neutral_right.jpg,cue_right,target_E,target_right,cue_3,500ms,correct,0.5150135189760476
mGCP-III,38,2018-01-23_14:15,4,377,37_Caucasian_female_neutral_left.jpg,26_Caucasian_female_neutral_left.jpg,61_Caucasian_female_neutral_left.jpg,cue_left,target_E,target_right,cue_3,200ms,correct,0.5312793827615678
mGCP-III,38,2018-01-23_14:15,4,378,61_Caucasian_female_neutral_right.jpg,37_Caucasian_female_neutral_right.jpg,26_Caucasian_female_neutral_right.jpg,cue_right,target_F,target_right,cue_3,200ms,incorrect,0.3954497615341097
mGCP-III,38,2018-01-23_14:15,4,379,61_Caucasian_female_neutral_right.jpg,26_Caucasian_female_neutral_right.jpg,37_Caucasian_female_neutral_right.jpg,cue_right,target_E,target_right,cue_3,200ms,correct,0.6811131408903748
mGCP-III,38,2018-01-23_14:15,4,380,26_Caucasian_female_neutral_left.jpg,37_Caucasian_female_neutral_left.jpg,61_Caucasian_female_neutral_left.jpg,cue_left,target_E,target_left,cue_3,200ms,correct,0.6053996204864234
mGCP-III,38,2018-01-23_14:15,4,381,26_Caucasian_female_neutral_left.jpg,37_Caucasian_female_neutral_left.jpg,61_Caucasian_female_neutral_left.jpg,cue_left,target_F,target_left,cue_3,200ms,correct,0.5346219972707331
mGCP-III,38,2018-01-23_14:15,4,382,26_Caucasian_female_neutral_right.jpg,61_Caucasian_female_neutral_right.jpg,37_Caucasian_female_neutral_right.jpg,cue_right,target_E,target_right,cue_3,200ms,incorrect,0.3672269689850509
mGCP-III,38,2018-01-23_14:15,4,383,61_Caucasian_female_neutral_left.jpg,26_Caucasian_female_neutral_left.jpg,37_Caucasian_female_neutral_left.jpg,cue_left,target_E,target_left,cue_3,500ms,correct,0.5359762678854167
mGCP-III,38,2018-01-23_14:15,4,384,37_Caucasian_female_neutral_right.jpg,61_Caucasian_female_neutral_right.jpg,26_Caucasian_female_neutral_right.jpg,cue_right,target_E,target_left,cue_3,500ms,correct,0.4263178852852434
