experiment,subject,date,block,trial,face_left,face_top,face_right,cue_dir,target_id,target_pos,cue_num,correct_response,rt
mGCP-III,123,2018-01-05_09:22,1,1,61_Caucasian_female_neutral_left.jpg,26_Caucasian_female_neutral_left.jpg,37_Caucasian_female_neutral_left.jpg,cue_left,target_E,target_left,cue_3,99,99
mGCP-III,123,2018-01-05_09:22,1,2,37_Caucasian_female_neutral_right.jpg,26_Caucasian_female_neutral_right.jpg,61_Caucasian_female_neutral_right.jpg,cue_right,target_F,target_left,cue_3,0,0.4254828936245758
mGCP-III,123,2018-01-05_09:22,1,3,26_Caucasian_female_neutral_left.jpg,61_Caucasian_female_neutral_left.jpg,37_Caucasian_female_neutral_left.jpg,cue_left,target_F,target_right,cue_3,0,0.34627383851329796
mGCP-III,123,2018-01-05_12:11,1,1,26_Caucasian_female_neutral_right.jpg,37_Caucasian_female_neutral_right.jpg,61_Caucasian_female_neutral_right.jpg,cue_right,target_F,target_right,cue_3,1,0.7688194493530318
mGCP-III,123,2018-01-05_12:11,1,2,26_Caucasian_female_neutral_left.jpg,61_Caucasian_female_neutral_left.jpg,37_Caucasian_female_neutral_left.jpg,cue_left,target_E,target_left,cue_3,1,0.7745786569576012
mGCP-III,123,2018-01-05_12:11,1,3,37_Caucasian_female_neutral_left.jpg,26_Caucasian_female_neutral_left.jpg,61_Caucasian_female_neutral_left.jpg,cue_left,target_F,target_left,cue_3,99,99
mGCP-III,123,2018-01-05_12:11,1,4,26_Caucasian_female_neutral_right.jpg,37_Caucasian_female_neutral_right.jpg,61_Caucasian_female_neutral_right.jpg,cue_right,target_E,target_right,cue_3,1,0.6108252401609207
mGCP-III,123,2018-01-05_12:11,1,5,26_Caucasian_female_neutral_left.jpg,61_Caucasian_female_neutral_left.jpg,37_Caucasian_female_neutral_left.jpg,cue_left,target_E,target_right,cue_3,1,0.5350089738203678
mGCP-III,123,2018-01-05_12:11,1,6,61_Caucasian_female_neutral_left.jpg,37_Caucasian_female_neutral_left.jpg,26_Caucasian_female_neutral_left.jpg,cue_left,target_E,target_right,cue_3,1,0.4102358873205958
mGCP-III,123,2018-01-05_12:11,1,7,26_Caucasian_female_neutral_right.jpg,37_Caucasian_female_neutral_right.jpg,61_Caucasian_female_neutral_right.jpg,cue_right,target_F,target_left,cue_3,99,99
mGCP-III,123,2018-01-05_12:11,1,8,61_Caucasian_female_neutral_right.jpg,26_Caucasian_female_neutral_right.jpg,37_Caucasian_female_neutral_right.jpg,cue_right,target_F,target_left,cue_3,1,0.6748204741452355
mGCP-III,123,2018-01-05_12:11,1,9,37_Caucasian_female_neutral_left.jpg,61_Caucasian_female_neutral_left.jpg,26_Caucasian_female_neutral_left.jpg,cue_left,target_F,target_left,cue_3,1,0.783560381794814
mGCP-III,123,2018-01-05_12:11,1,10,26_Caucasian_female_neutral_left.jpg,37_Caucasian_female_neutral_left.jpg,61_Caucasian_female_neutral_left.jpg,cue_left,target_F,target_right,cue_3,99,99
mGCP-III,123,2018-01-05_12:11,1,11,37_Caucasian_female_neutral_left.jpg,26_Caucasian_female_neutral_left.jpg,61_Caucasian_female_neutral_left.jpg,cue_left,target_F,target_right,cue_3,1,0.3702050883148331
mGCP-III,123,2018-01-05_12:11,1,12,61_Caucasian_female_neutral_right.jpg,37_Caucasian_female_neutral_right.jpg,26_Caucasian_female_neutral_right.jpg,cue_right,target_F,target_left,cue_3,1,0.6035438603285002
mGCP-III,123,2018-01-05_12:11,1,13,26_Caucasian_female_neutral_right.jpg,61_Caucasian_female_neutral_right.jpg,37_Caucasian_female_neutral_right.jpg,cue_right,target_F,target_right,cue_3,1,0.7340018828690518
mGCP-III,123,2018-01-05_12:11,1,14,26_Caucasian_female_neutral_left.jpg,37_Caucasian_female_neutral_left.jpg,61_Caucasian_female_neutral_left.jpg,cue_left,target_E,target_right,cue_3,0,0.4941722492221743
mGCP-III,123,2018-01-05_12:11,1,15,26_Caucasian_female_neutral_left.jpg,37_Caucasian_female_neutral_left.jpg,61_Caucasian_female_neutral_left.jpg,cue_left,target_E,target_left,cue_3,1,0.6907260481093545
mGCP-III,123,2018-01-05_12:11,1,16,37_Caucasian_female_neutral_right.jpg,61_Caucasian_female_neutral_right.jpg,26_Caucasian_female_neutral_right.jpg,cue_right,target_F,target_right,cue_3,1,0.669122106017312
mGCP-III,123,2018-01-05_12:11,1,17,37_Caucasian_female_neutral_right.jpg,26_Caucasian_female_neutral_right.jpg,61_Caucasian_female_neutral_right.jpg,cue_right,target_E,target_right,cue_3,99,99
mGCP-III,123,2018-01-05_12:11,1,18,26_Caucasian_female_neutral_right.jpg,61_Caucasian_female_neutral_right.jpg,37_Caucasian_female_neutral_right.jpg,cue_right,target_E,target_left,cue_3,1,0.660233615708421
mGCP-III,123,2018-01-05_12:11,1,19,61_Caucasian_female_neutral_left.jpg,26_Caucasian_female_neutral_left.jpg,37_Caucasian_female_neutral_left.jpg,cue_left,target_F,target_right,cue_3,1,0.48686163481033873
mGCP-III,123,2018-01-05_12:12,1,20,26_Caucasian_female_neutral_left.jpg,37_Caucasian_female_neutral_left.jpg,61_Caucasian_female_neutral_left.jpg,cue_left,target_F,target_left,cue_3,0,0.6347426628199173
mGCP-III,123,2018-01-05_12:12,1,21,26_Caucasian_female_neutral_left.jpg,61_Caucasian_female_neutral_left.jpg,37_Caucasian_female_neutral_left.jpg,cue_left,target_F,target_right,cue_3,1,0.6512992982607102
mGCP-III,123,2018-01-05_12:12,1,22,37_Caucasian_female_neutral_right.jpg,61_Caucasian_female_neutral_right.jpg,26_Caucasian_female_neutral_right.jpg,cue_right,target_E,target_right,cue_3,1,0.7346730924764415
mGCP-III,123,2018-01-05_12:12,1,23,37_Caucasian_female_neutral_right.jpg,26_Caucasian_female_neutral_right.jpg,61_Caucasian_female_neutral_right.jpg,cue_right,target_E,target_left,cue_3,1,0.6565062097797636
mGCP-III,123,2018-01-05_12:12,1,24,26_Caucasian_female_neutral_right.jpg,61_Caucasian_female_neutral_right.jpg,37_Caucasian_female_neutral_right.jpg,cue_right,target_F,target_left,cue_3,1,0.6094531913258834
mGCP-III,123,2018-01-05_12:12,1,25,26_Caucasian_female_neutral_right.jpg,61_Caucasian_female_neutral_right.jpg,37_Caucasian_female_neutral_right.jpg,cue_right,target_E,target_right,cue_3,1,0.5441246245318325
mGCP-III,123,2018-01-05_12:12,1,26,37_Caucasian_female_neutral_left.jpg,26_Caucasian_female_neutral_left.jpg,61_Caucasian_female_neutral_left.jpg,cue_left,target_E,target_left,cue_3,1,0.5307478397153318
mGCP-III,123,2018-01-05_12:12,1,27,61_Caucasian_female_neutral_right.jpg,37_Caucasian_female_neutral_right.jpg,26_Caucasian_female_neutral_right.jpg,cue_right,target_E,target_left,cue_3,1,0.5245595952292206
mGCP-III,123,2018-01-05_12:12,1,28,61_Caucasian_female_neutral_right.jpg,26_Caucasian_female_neutral_right.jpg,37_Caucasian_female_neutral_right.jpg,cue_right,target_F,target_right,cue_3,1,0.5364833436033223
mGCP-III,123,2018-01-05_12:12,1,29,37_Caucasian_female_neutral_right.jpg,26_Caucasian_female_neutral_right.jpg,61_Caucasian_female_neutral_right.jpg,cue_right,target_F,target_right,cue_3,0,0.508313873258885
mGCP-III,123,2018-01-05_12:12,1,30,37_Caucasian_female_neutral_left.jpg,61_Caucasian_female_neutral_left.jpg,26_Caucasian_female_neutral_left.jpg,cue_left,target_E,target_right,cue_3,1,0.7925729214475723
mGCP-III,123,2018-01-05_12:12,1,31,37_Caucasian_female_neutral_left.jpg,61_Caucasian_female_neutral_left.jpg,26_Caucasian_female_neutral_left.jpg,cue_left,target_F,target_right,cue_3,1,0.6175551140477182
mGCP-III,123,2018-01-05_12:12,1,32,37_Caucasian_female_neutral_right.jpg,61_Caucasian_female_neutral_right.jpg,26_Caucasian_female_neutral_right.jpg,cue_right,target_E,target_left,cue_3,1,0.5915426798746921
mGCP-III,123,2018-01-05_12:12,1,33,61_Caucasian_female_neutral_right.jpg,26_Caucasian_female_neutral_right.jpg,37_Caucasian_female_neutral_right.jpg,cue_right,target_E,target_right,cue_3,1,0.5918472723569721
mGCP-III,123,2018-01-05_12:12,1,34,61_Caucasian_female_neutral_right.jpg,26_Caucasian_female_neutral_right.jpg,37_Caucasian_female_neutral_right.jpg,cue_right,target_E,target_left,cue_3,1,0.4517197227833094
mGCP-III,123,2018-01-05_12:12,1,35,61_Caucasian_female_neutral_left.jpg,37_Caucasian_female_neutral_left.jpg,26_Caucasian_female_neutral_left.jpg,cue_left,target_E,target_left,cue_3,1,0.4279583494499093
mGCP-III,123,2018-01-05_12:12,1,36,37_Caucasian_female_neutral_right.jpg,61_Caucasian_female_neutral_right.jpg,26_Caucasian_female_neutral_right.jpg,cue_right,target_F,target_left,cue_3,1,0.4894880041538272
mGCP-III,123,2018-01-05_12:12,1,37,61_Caucasian_female_neutral_right.jpg,37_Caucasian_female_neutral_right.jpg,26_Caucasian_female_neutral_right.jpg,cue_right,target_F,target_right,cue_3,1,0.6640653179056244
mGCP-III,123,2018-01-05_12:12,1,38,61_Caucasian_female_neutral_left.jpg,37_Caucasian_female_neutral_left.jpg,26_Caucasian_female_neutral_left.jpg,cue_left,target_F,target_right,cue_3,1,0.42450511624338105
mGCP-III,123,2018-01-05_12:12,1,39,61_Caucasian_female_neutral_left.jpg,37_Caucasian_female_neutral_left.jpg,26_Caucasian_female_neutral_left.jpg,cue_left,target_F,target_left,cue_3,1,0.7229614921670873
mGCP-III,123,2018-01-05_12:12,1,40,61_Caucasian_female_neutral_left.jpg,26_Caucasian_female_neutral_left.jpg,37_Caucasian_female_neutral_left.jpg,cue_left,target_E,target_right,cue_3,1,0.5061848864424974
mGCP-III,123,2018-01-05_12:12,1,41,26_Caucasian_female_neutral_left.jpg,61_Caucasian_female_neutral_left.jpg,37_Caucasian_female_neutral_left.jpg,cue_left,target_F,target_left,cue_3,0,0.6990879213408334
mGCP-III,123,2018-01-05_12:12,1,42,37_Caucasian_female_neutral_right.jpg,26_Caucasian_female_neutral_right.jpg,61_Caucasian_female_neutral_right.jpg,cue_right,target_F,target_left,cue_3,99,99
mGCP-III,123,2018-01-05_12:12,1,43,61_Caucasian_female_neutral_left.jpg,26_Caucasian_female_neutral_left.jpg,37_Caucasian_female_neutral_left.jpg,cue_left,target_F,target_left,cue_3,1,0.6857727661117679
mGCP-III,123,2018-01-05_12:12,1,44,37_Caucasian_female_neutral_left.jpg,61_Caucasian_female_neutral_left.jpg,26_Caucasian_female_neutral_left.jpg,cue_left,target_E,target_left,cue_3,1,0.5485769684746629
mGCP-III,123,2018-01-05_12:12,1,45,26_Caucasian_female_neutral_right.jpg,37_Caucasian_female_neutral_right.jpg,61_Caucasian_female_neutral_right.jpg,cue_right,target_E,target_left,cue_3,1,0.5202336710208328
mGCP-III,123,2018-01-05_12:12,1,46,37_Caucasian_female_neutral_left.jpg,26_Caucasian_female_neutral_left.jpg,61_Caucasian_female_neutral_left.jpg,cue_left,target_E,target_right,cue_3,1,0.6291426650277572
mGCP-III,123,2018-01-05_12:13,1,47,61_Caucasian_female_neutral_left.jpg,26_Caucasian_female_neutral_left.jpg,37_Caucasian_female_neutral_left.jpg,cue_left,target_E,target_left,cue_3,1,0.5861315215297509
mGCP-III,123,2018-01-05_12:13,1,48,61_Caucasian_female_neutral_right.jpg,37_Caucasian_female_neutral_right.jpg,26_Caucasian_female_neutral_right.jpg,cue_right,target_E,target_right,cue_3,1,0.48808039976574946
mGCP-III,123,2018-01-05_12:13,2,49,99,37_Caucasian_female_neutral_right.jpg,99,cue_right,target_E,target_right,cue_1,1,0.693187281707651
mGCP-III,123,2018-01-05_12:13,2,50,99,37_Caucasian_female_neutral_left.jpg,99,cue_left,target_E,target_right,cue_1,1,0.662508380235522
mGCP-III,123,2018-01-05_12:13,2,51,99,26_Caucasian_female_neutral_left.jpg,99,cue_left,target_E,target_right,cue_1,1,0.4746064297942212
mGCP-III,123,2018-01-05_12:13,2,52,99,37_Caucasian_female_neutral_left.jpg,99,cue_left,target_F,target_right,cue_1,1,0.5461631422513165
mGCP-III,123,2018-01-05_12:13,2,53,99,61_Caucasian_female_neutral_left.jpg,99,cue_left,target_F,target_left,cue_1,1,0.6764781524980208
mGCP-III,123,2018-01-05_12:13,2,54,99,61_Caucasian_female_neutral_left.jpg,99,cue_left,target_E,target_left,cue_1,1,0.611145635106368
mGCP-III,123,2018-01-05_12:13,2,55,99,37_Caucasian_female_neutral_right.jpg,99,cue_right,target_E,target_right,cue_1,1,0.5090364408679307
mGCP-III,123,2018-01-05_12:13,2,56,99,26_Caucasian_female_neutral_left.jpg,99,cue_left,target_F,target_right,cue_1,0,0.5177317460766062
mGCP-III,123,2018-01-05_12:13,2,57,99,37_Caucasian_female_neutral_right.jpg,99,cue_right,target_E,target_left,cue_1,1,0.5012339748209342
mGCP-III,123,2018-01-05_12:13,2,58,99,61_Caucasian_female_neutral_left.jpg,99,cue_left,target_E,target_right,cue_1,1,0.5849218429939356
mGCP-III,123,2018-01-05_12:13,2,59,99,26_Caucasian_female_neutral_right.jpg,99,cue_right,target_F,target_right,cue_1,1,0.5009503206238151
mGCP-III,123,2018-01-05_12:13,2,60,99,37_Caucasian_female_neutral_right.jpg,99,cue_right,target_F,target_left,cue_1,1,0.6513514463877073
mGCP-III,123,2018-01-05_12:13,2,61,99,37_Caucasian_female_neutral_left.jpg,99,cue_left,target_E,target_right,cue_1,1,0.5237797436857363
mGCP-III,123,2018-01-05_12:13,2,62,99,37_Caucasian_female_neutral_left.jpg,99,cue_left,target_F,target_right,cue_1,1,0.5909461369155906
mGCP-III,123,2018-01-05_12:13,2,63,99,26_Caucasian_female_neutral_left.jpg,99,cue_left,target_E,target_right,cue_1,1,0.4549319684301736
mGCP-III,123,2018-01-05_12:13,2,64,99,61_Caucasian_female_neutral_right.jpg,99,cue_right,target_F,target_left,cue_1,1,0.6461484854662558
mGCP-III,123,2018-01-05_12:13,2,65,99,61_Caucasian_female_neutral_right.jpg,99,cue_right,target_F,target_left,cue_1,99,99
mGCP-III,123,2018-01-05_12:13,2,66,99,37_Caucasian_female_neutral_right.jpg,99,cue_right,target_F,target_right,cue_1,1,0.5885271748993546
mGCP-III,123,2018-01-05_12:13,2,67,99,61_Caucasian_female_neutral_left.jpg,99,cue_left,target_F,target_left,cue_1,1,0.659780875153956
mGCP-III,123,2018-01-05_12:13,2,68,99,37_Caucasian_female_neutral_right.jpg,99,cue_right,target_F,target_left,cue_1,1,0.6297309117071563
mGCP-III,123,2018-01-05_12:14,2,69,99,61_Caucasian_female_neutral_right.jpg,99,cue_right,target_F,target_right,cue_1,1,0.4498297482205089
mGCP-III,123,2018-01-05_12:14,2,70,99,37_Caucasian_female_neutral_right.jpg,99,cue_right,target_F,target_right,cue_1,1,0.598904257232789
mGCP-III,123,2018-01-05_12:14,2,71,99,61_Caucasian_female_neutral_right.jpg,99,cue_right,target_E,target_left,cue_1,1,0.7299193165672477
mGCP-III,123,2018-01-05_12:14,2,72,99,37_Caucasian_female_neutral_left.jpg,99,cue_left,target_E,target_left,cue_1,1,0.5226166824140819
mGCP-III,123,2018-01-05_12:14,2,73,99,61_Caucasian_female_neutral_right.jpg,99,cue_right,target_E,target_right,cue_1,0,0.651321421697503
mGCP-III,123,2018-01-05_12:14,2,74,99,37_Caucasian_female_neutral_left.jpg,99,cue_left,target_F,target_left,cue_1,1,0.6821946934505831
mGCP-III,123,2018-01-05_12:14,2,75,99,26_Caucasian_female_neutral_left.jpg,99,cue_left,target_F,target_left,cue_1,1,0.581837202233146
mGCP-III,123,2018-01-05_12:14,2,76,99,37_Caucasian_female_neutral_left.jpg,99,cue_left,target_E,target_left,cue_1,1,0.6923619980661897
mGCP-III,123,2018-01-05_12:14,2,77,99,37_Caucasian_female_neutral_right.jpg,99,cue_right,target_E,target_left,cue_1,1,0.6252094320079777
mGCP-III,123,2018-01-05_12:14,2,78,99,26_Caucasian_female_neutral_left.jpg,99,cue_left,target_E,target_left,cue_1,1,0.4578277697437443
mGCP-III,123,2018-01-05_12:14,2,79,99,61_Caucasian_female_neutral_left.jpg,99,cue_left,target_F,target_right,cue_1,1,0.7072352761606453
mGCP-III,123,2018-01-05_12:14,2,80,99,61_Caucasian_female_neutral_left.jpg,99,cue_left,target_E,target_right,cue_1,1,0.568717997535714
mGCP-III,123,2018-01-05_12:14,2,81,99,26_Caucasian_female_neutral_left.jpg,99,cue_left,target_F,target_right,cue_1,1,0.48070499527966604
mGCP-III,123,2018-01-05_12:14,2,82,99,26_Caucasian_female_neutral_right.jpg,99,cue_right,target_E,target_left,cue_1,1,0.3635020786168752
mGCP-III,123,2018-01-05_12:14,2,83,99,26_Caucasian_female_neutral_right.jpg,99,cue_right,target_F,target_right,cue_1,1,0.47938548962702043
mGCP-III,123,2018-01-05_12:14,2,84,99,26_Caucasian_female_neutral_right.jpg,99,cue_right,target_F,target_left,cue_1,0,0.7185138889763039
mGCP-III,123,2018-01-05_12:14,2,85,99,26_Caucasian_female_neutral_right.jpg,99,cue_right,target_E,target_right,cue_1,1,0.6112428202468436
mGCP-III,123,2018-01-05_12:14,2,86,99,61_Caucasian_female_neutral_left.jpg,99,cue_left,target_F,target_right,cue_1,1,0.6129941281978972
mGCP-III,123,2018-01-05_12:14,2,87,99,26_Caucasian_female_neutral_right.jpg,99,cue_right,target_F,target_left,cue_1,1,0.6406563394994009
mGCP-III,123,2018-01-05_12:14,2,88,99,61_Caucasian_female_neutral_left.jpg,99,cue_left,target_E,target_left,cue_1,1,0.5577803228516132
mGCP-III,123,2018-01-05_12:14,2,89,99,26_Caucasian_female_neutral_left.jpg,99,cue_left,target_E,target_left,cue_1,1,0.6323928365891334
mGCP-III,123,2018-01-05_12:14,2,90,99,61_Caucasian_female_neutral_right.jpg,99,cue_right,target_E,target_right,cue_1,1,0.5541473366465652
mGCP-III,123,2018-01-05_12:14,2,91,99,26_Caucasian_female_neutral_right.jpg,99,cue_right,target_E,target_right,cue_1,1,0.5256681380124064
mGCP-III,123,2018-01-05_12:14,2,92,99,37_Caucasian_female_neutral_left.jpg,99,cue_left,target_F,target_left,cue_1,1,0.5259668045619037
mGCP-III,123,2018-01-05_12:14,2,93,99,26_Caucasian_female_neutral_left.jpg,99,cue_left,target_F,target_left,cue_1,1,0.5868173484195722
mGCP-III,123,2018-01-05_12:14,2,94,99,61_Caucasian_female_neutral_right.jpg,99,cue_right,target_E,target_left,cue_1,1,0.5321194934949744
mGCP-III,123,2018-01-05_12:14,2,95,99,26_Caucasian_female_neutral_right.jpg,99,cue_right,target_E,target_left,cue_1,1,0.5756430318433559
mGCP-III,123,2018-01-05_12:14,2,96,99,61_Caucasian_female_neutral_right.jpg,99,cue_right,target_F,target_right,cue_1,1,0.5810743383481167
mGCP-III,123,2018-01-05_12:15,3,97,26_Caucasian_female_neutral_left.jpg,61_Caucasian_female_neutral_left.jpg,37_Caucasian_female_neutral_left.jpg,cue_left,target_F,target_right,cue_3,0,0.4065949998621363
mGCP-III,123,2018-01-05_12:15,3,98,61_Caucasian_female_neutral_right.jpg,37_Caucasian_female_neutral_right.jpg,26_Caucasian_female_neutral_right.jpg,cue_right,target_E,target_right,cue_3,1,0.38776913075707853
mGCP-III,123,2018-01-05_12:15,3,99,61_Caucasian_female_neutral_right.jpg,26_Caucasian_female_neutral_right.jpg,37_Caucasian_female_neutral_right.jpg,cue_right,target_F,target_left,cue_3,0,0.5470998332457384
mGCP-III,123,2018-01-05_12:15,3,100,26_Caucasian_female_neutral_left.jpg,61_Caucasian_female_neutral_left.jpg,37_Caucasian_female_neutral_left.jpg,cue_left,target_F,target_left,cue_3,0,0.2613055757683469
mGCP-III,123,2018-01-05_12:15,3,101,26_Caucasian_female_neutral_right.jpg,61_Caucasian_female_neutral_right.jpg,37_Caucasian_female_neutral_right.jpg,cue_right,target_F,target_right,cue_3,0,0.33415690502442885
mGCP-III,123,2018-01-05_12:15,3,102,26_Caucasian_female_neutral_right.jpg,61_Caucasian_female_neutral_right.jpg,37_Caucasian_female_neutral_right.jpg,cue_right,target_F,target_left,cue_3,0,0.19121651705063414
mGCP-III,123,2018-01-05_12:15,3,103,61_Caucasian_female_neutral_left.jpg,37_Caucasian_female_neutral_left.jpg,26_Caucasian_female_neutral_left.jpg,cue_left,target_F,target_left,cue_3,0,0.239327115326887
mGCP-III,123,2018-01-05_12:15,3,104,61_Caucasian_female_neutral_right.jpg,37_Caucasian_female_neutral_right.jpg,26_Caucasian_female_neutral_right.jpg,cue_right,target_F,target_right,cue_3,0,0.02120058421860449
mGCP-III,123,2018-01-05_12:15,3,105,37_Caucasian_female_neutral_left.jpg,26_Caucasian_female_neutral_left.jpg,61_Caucasian_female_neutral_left.jpg,cue_left,target_E,target_left,cue_3,1,0.3571810934517998
mGCP-III,123,2018-01-05_12:15,3,106,37_Caucasian_female_neutral_right.jpg,26_Caucasian_female_neutral_right.jpg,61_Caucasian_female_neutral_right.jpg,cue_right,target_F,target_left,cue_3,0,0.013953969784779474
mGCP-III,123,2018-01-05_12:15,3,107,61_Caucasian_female_neutral_left.jpg,37_Caucasian_female_neutral_left.jpg,26_Caucasian_female_neutral_left.jpg,cue_left,target_F,target_right,cue_3,0,0.4108581092878012
mGCP-III,123,2018-01-05_12:15,3,108,61_Caucasian_female_neutral_left.jpg,37_Caucasian_female_neutral_left.jpg,26_Caucasian_female_neutral_left.jpg,cue_left,target_E,target_left,cue_3,1,0.3512551698659081
mGCP-III,123,2018-01-05_12:15,3,109,26_Caucasian_female_neutral_right.jpg,37_Caucasian_female_neutral_right.jpg,61_Caucasian_female_neutral_right.jpg,cue_right,target_E,target_left,cue_3,1,0.42677237461612094
mGCP-III,123,2018-01-05_12:15,3,110,26_Caucasian_female_neutral_right.jpg,37_Caucasian_female_neutral_right.jpg,61_Caucasian_female_neutral_right.jpg,cue_right,target_F,target_right,cue_3,0,0.20933720124594402
mGCP-III,123,2018-01-05_12:15,3,111,61_Caucasian_female_neutral_left.jpg,26_Caucasian_female_neutral_left.jpg,37_Caucasian_female_neutral_left.jpg,cue_left,target_E,target_right,cue_3,1,0.019985769875347614
mGCP-III,123,2018-01-05_12:15,3,112,26_Caucasian_female_neutral_left.jpg,61_Caucasian_female_neutral_left.jpg,37_Caucasian_female_neutral_left.jpg,cue_left,target_E,target_right,cue_3,1,0.10221191024174914
mGCP-III,123,2018-01-05_12:15,3,113,61_Caucasian_female_neutral_left.jpg,26_Caucasian_female_neutral_left.jpg,37_Caucasian_female_neutral_left.jpg,cue_left,target_F,target_right,cue_3,0,0.09228954378340859
mGCP-III,123,2018-01-05_12:15,3,114,26_Caucasian_female_neutral_right.jpg,61_Caucasian_female_neutral_right.jpg,37_Caucasian_female_neutral_right.jpg,cue_right,target_E,target_right,cue_3,1,0.26375811801699456
mGCP-III,123,2018-01-05_12:15,3,115,61_Caucasian_female_neutral_right.jpg,26_Caucasian_female_neutral_right.jpg,37_Caucasian_female_neutral_right.jpg,cue_right,target_E,target_right,cue_3,1,0.5270836436247919
mGCP-III,123,2018-01-05_12:15,3,116,26_Caucasian_female_neutral_left.jpg,37_Caucasian_female_neutral_left.jpg,61_Caucasian_female_neutral_left.jpg,cue_left,target_F,target_left,cue_3,0,0.6708260065934155
mGCP-III,123,2018-01-05_12:15,3,117,26_Caucasian_female_neutral_left.jpg,37_Caucasian_female_neutral_left.jpg,61_Caucasian_female_neutral_left.jpg,cue_left,target_F,target_right,cue_3,0,0.7877871455712011
mGCP-III,123,2018-01-05_12:15,3,118,61_Caucasian_female_neutral_left.jpg,37_Caucasian_female_neutral_left.jpg,26_Caucasian_female_neutral_left.jpg,cue_left,target_E,target_right,cue_3,1,0.31870486174011603
mGCP-III,123,2018-01-05_12:15,3,119,26_Caucasian_female_neutral_left.jpg,37_Caucasian_female_neutral_left.jpg,61_Caucasian_female_neutral_left.jpg,cue_left,target_E,target_left,cue_3,1,0.20752702912432142
mGCP-III,123,2018-01-05_12:15,3,120,61_Caucasian_female_neutral_right.jpg,26_Caucasian_female_neutral_right.jpg,37_Caucasian_female_neutral_right.jpg,cue_right,target_F,target_right,cue_3,0,0.10403867495188024
mGCP-III,123,2018-01-05_12:15,3,121,37_Caucasian_female_neutral_right.jpg,61_Caucasian_female_neutral_right.jpg,26_Caucasian_female_neutral_right.jpg,cue_right,target_E,target_right,cue_3,1,0.29280462505994365
mGCP-III,123,2018-01-05_12:15,3,122,61_Caucasian_female_neutral_right.jpg,37_Caucasian_female_neutral_right.jpg,26_Caucasian_female_neutral_right.jpg,cue_right,target_E,target_left,cue_3,1,0.1705950930918334
mGCP-III,123,2018-01-05_12:15,3,123,37_Caucasian_female_neutral_left.jpg,26_Caucasian_female_neutral_left.jpg,61_Caucasian_female_neutral_left.jpg,cue_left,target_E,target_right,cue_3,1,0.40666453070298303
mGCP-III,123,2018-01-05_12:15,3,124,37_Caucasian_female_neutral_left.jpg,61_Caucasian_female_neutral_left.jpg,26_Caucasian_female_neutral_left.jpg,cue_left,target_E,target_right,cue_3,1,0.2688745604536962
mGCP-III,123,2018-01-05_12:15,3,125,37_Caucasian_female_neutral_right.jpg,26_Caucasian_female_neutral_right.jpg,61_Caucasian_female_neutral_right.jpg,cue_right,target_F,target_right,cue_3,0,0.13040310898213647
mGCP-III,123,2018-01-05_12:15,3,126,26_Caucasian_female_neutral_left.jpg,37_Caucasian_female_neutral_left.jpg,61_Caucasian_female_neutral_left.jpg,cue_left,target_E,target_right,cue_3,1,0.13088784951833077
mGCP-III,123,2018-01-05_12:16,3,127,61_Caucasian_female_neutral_right.jpg,26_Caucasian_female_neutral_right.jpg,37_Caucasian_female_neutral_right.jpg,cue_right,target_E,target_left,cue_3,1,0.38920043883263133
mGCP-III,123,2018-01-05_12:16,3,128,37_Caucasian_female_neutral_left.jpg,61_Caucasian_female_neutral_left.jpg,26_Caucasian_female_neutral_left.jpg,cue_left,target_F,target_left,cue_3,0,0.08397191745461896
mGCP-III,123,2018-01-05_12:16,3,129,26_Caucasian_female_neutral_left.jpg,61_Caucasian_female_neutral_left.jpg,37_Caucasian_female_neutral_left.jpg,cue_left,target_E,target_left,cue_3,1,0.06248451852297876
mGCP-III,123,2018-01-05_12:16,3,130,37_Caucasian_female_neutral_right.jpg,26_Caucasian_female_neutral_right.jpg,61_Caucasian_female_neutral_right.jpg,cue_right,target_E,target_left,cue_3,1,0.09191779085085727
mGCP-III,123,2018-01-05_12:16,3,131,37_Caucasian_female_neutral_left.jpg,26_Caucasian_female_neutral_left.jpg,61_Caucasian_female_neutral_left.jpg,cue_left,target_F,target_right,cue_3,0,0.07905774655228015
mGCP-III,123,2018-01-05_12:16,3,132,26_Caucasian_female_neutral_right.jpg,37_Caucasian_female_neutral_right.jpg,61_Caucasian_female_neutral_right.jpg,cue_right,target_E,target_right,cue_3,1,0.09171433413575869
mGCP-III,123,2018-01-05_12:16,3,133,26_Caucasian_female_neutral_right.jpg,37_Caucasian_female_neutral_right.jpg,61_Caucasian_female_neutral_right.jpg,cue_right,target_F,target_left,cue_3,0,0.30614150868495926
mGCP-III,123,2018-01-05_12:16,3,134,37_Caucasian_female_neutral_right.jpg,26_Caucasian_female_neutral_right.jpg,61_Caucasian_female_neutral_right.jpg,cue_right,target_E,target_right,cue_3,1,0.27049273264128715
mGCP-III,123,2018-01-05_12:16,3,135,37_Caucasian_female_neutral_left.jpg,26_Caucasian_female_neutral_left.jpg,61_Caucasian_female_neutral_left.jpg,cue_left,target_F,target_left,cue_3,0,0.33818929850531276
mGCP-III,123,2018-01-05_12:16,3,136,37_Caucasian_female_neutral_right.jpg,61_Caucasian_female_neutral_right.jpg,26_Caucasian_female_neutral_right.jpg,cue_right,target_F,target_right,cue_3,0,0.25877441628836095
mGCP-III,123,2018-01-05_12:16,3,137,37_Caucasian_female_neutral_right.jpg,61_Caucasian_female_neutral_right.jpg,26_Caucasian_female_neutral_right.jpg,cue_right,target_F,target_left,cue_3,0,0.11114701781480107
mGCP-III,123,2018-01-05_12:16,3,138,37_Caucasian_female_neutral_right.jpg,61_Caucasian_female_neutral_right.jpg,26_Caucasian_female_neutral_right.jpg,cue_right,target_E,target_left,cue_3,1,0.14538660923426505
mGCP-III,123,2018-01-05_12:16,3,139,61_Caucasian_female_neutral_left.jpg,26_Caucasian_female_neutral_left.jpg,37_Caucasian_female_neutral_left.jpg,cue_left,target_E,target_left,cue_3,1,0.2345049937866861
mGCP-III,123,2018-01-05_12:16,3,140,61_Caucasian_female_neutral_right.jpg,37_Caucasian_female_neutral_right.jpg,26_Caucasian_female_neutral_right.jpg,cue_right,target_F,target_left,cue_3,0,0.1921729611203773
mGCP-III,123,2018-01-05_12:16,3,141,37_Caucasian_female_neutral_left.jpg,61_Caucasian_female_neutral_left.jpg,26_Caucasian_female_neutral_left.jpg,cue_left,target_F,target_right,cue_3,0,0.1692269948835019
mGCP-III,123,2018-01-05_12:16,3,142,61_Caucasian_female_neutral_left.jpg,26_Caucasian_female_neutral_left.jpg,37_Caucasian_female_neutral_left.jpg,cue_left,target_F,target_left,cue_3,0,0.2204589746252168
mGCP-III,123,2018-01-05_12:16,3,143,37_Caucasian_female_neutral_left.jpg,61_Caucasian_female_neutral_left.jpg,26_Caucasian_female_neutral_left.jpg,cue_left,target_E,target_left,cue_3,1,0.38298493511683773
mGCP-III,123,2018-01-05_12:16,3,144,26_Caucasian_female_neutral_right.jpg,61_Caucasian_female_neutral_right.jpg,37_Caucasian_female_neutral_right.jpg,cue_right,target_E,target_left,cue_3,1,0.28252354271535296
mGCP-III,123,2018-01-05_12:16,4,145,99,61_Caucasian_female_neutral_left.jpg,99,cue_left,target_F,target_right,cue_1,0,0.47073324614029843
mGCP-III,123,2018-01-05_12:16,4,146,99,61_Caucasian_female_neutral_left.jpg,99,cue_left,target_E,target_right,cue_1,99,99
mGCP-III,123,2018-01-05_12:16,4,147,99,37_Caucasian_female_neutral_left.jpg,99,cue_left,target_F,target_left,cue_1,1,0.48428464817698114
mGCP-III,123,2018-01-05_12:16,4,148,99,26_Caucasian_female_neutral_right.jpg,99,cue_right,target_E,target_right,cue_1,0,0.3112836301152129
mGCP-III,123,2018-01-05_12:16,4,149,99,26_Caucasian_female_neutral_left.jpg,99,cue_left,target_E,target_left,cue_1,0,0.1008133922732668
mGCP-III,123,2018-01-05_12:16,4,150,99,37_Caucasian_female_neutral_left.jpg,99,cue_left,target_E,target_right,cue_1,0,0.2698337699403055
mGCP-III,123,2018-01-05_12:16,4,151,99,26_Caucasian_female_neutral_left.jpg,99,cue_left,target_F,target_right,cue_1,1,0.2999339061934734
mGCP-III,123,2018-01-05_12:16,4,152,99,26_Caucasian_female_neutral_right.jpg,99,cue_right,target_E,target_right,cue_1,0,0.3148814558517188
mGCP-III,123,2018-01-05_12:16,4,153,99,61_Caucasian_female_neutral_left.jpg,99,cue_left,target_F,target_left,cue_1,1,0.2545689858525293
mGCP-III,123,2018-01-05_12:16,4,154,99,26_Caucasian_female_neutral_right.jpg,99,cue_right,target_F,target_left,cue_1,1,0.24371782965317834
mGCP-III,123,2018-01-05_12:16,4,155,99,37_Caucasian_female_neutral_left.jpg,99,cue_left,target_E,target_left,cue_1,0,0.14369456052372698
mGCP-III,123,2018-01-05_12:16,4,156,99,26_Caucasian_female_neutral_right.jpg,99,cue_right,target_F,target_right,cue_1,1,0.2208089991909219
mGCP-III,123,2018-01-05_12:17,4,157,99,61_Caucasian_female_neutral_right.jpg,99,cue_right,target_F,target_right,cue_1,1,0.291067539335927
mGCP-III,123,2018-01-05_12:17,4,158,99,61_Caucasian_female_neutral_right.jpg,99,cue_right,target_F,target_left,cue_1,1,0.21623971704684664
mGCP-III,123,2018-01-05_12:17,4,159,99,37_Caucasian_female_neutral_right.jpg,99,cue_right,target_F,target_right,cue_1,1,0.2490693337022094
mGCP-III,123,2018-01-05_12:17,4,160,99,26_Caucasian_female_neutral_right.jpg,99,cue_right,target_E,target_left,cue_1,0,0.22759852737362962
mGCP-III,123,2018-01-05_12:17,4,161,99,26_Caucasian_female_neutral_left.jpg,99,cue_left,target_F,target_right,cue_1,1,0.25351298626628704
mGCP-III,123,2018-01-05_12:17,4,162,99,26_Caucasian_female_neutral_left.jpg,99,cue_left,target_E,target_left,cue_1,0,0.24358548401505686
mGCP-III,123,2018-01-05_12:17,4,163,99,61_Caucasian_female_neutral_right.jpg,99,cue_right,target_F,target_right,cue_1,1,0.20479043760860804
mGCP-III,123,2018-01-05_12:17,4,164,99,26_Caucasian_female_neutral_left.jpg,99,cue_left,target_F,target_left,cue_1,1,0.24929214842268266
mGCP-III,123,2018-01-05_12:17,4,165,99,61_Caucasian_female_neutral_right.jpg,99,cue_right,target_E,target_right,cue_1,0,0.05364225040830206
mGCP-III,123,2018-01-05_12:17,4,166,99,37_Caucasian_female_neutral_right.jpg,99,cue_right,target_E,target_left,cue_1,0,0.35001625679433346
mGCP-III,123,2018-01-05_12:17,4,167,99,61_Caucasian_female_neutral_right.jpg,99,cue_right,target_E,target_left,cue_1,0,0.17939113899774384
mGCP-III,123,2018-01-05_12:17,4,168,99,37_Caucasian_female_neutral_right.jpg,99,cue_right,target_E,target_right,cue_1,0,0.2297753166349139
mGCP-III,123,2018-01-05_12:17,4,169,99,26_Caucasian_female_neutral_left.jpg,99,cue_left,target_E,target_right,cue_1,0,0.16377791060949676
mGCP-III,123,2018-01-05_12:17,4,170,99,37_Caucasian_female_neutral_right.jpg,99,cue_right,target_E,target_left,cue_1,0,0.22443566442234442
mGCP-III,123,2018-01-05_12:17,4,171,99,61_Caucasian_female_neutral_right.jpg,99,cue_right,target_E,target_right,cue_1,0,0.3057045705791097
mGCP-III,123,2018-01-05_12:17,4,172,99,37_Caucasian_female_neutral_left.jpg,99,cue_left,target_E,target_left,cue_1,0,0.17205405548156705
mGCP-III,123,2018-01-05_12:17,4,173,99,61_Caucasian_female_neutral_left.jpg,99,cue_left,target_E,target_left,cue_1,0,0.12214829742151778
mGCP-III,123,2018-01-05_12:17,4,174,99,37_Caucasian_female_neutral_left.jpg,99,cue_left,target_F,target_right,cue_1,1,0.3016322759067407
mGCP-III,123,2018-01-05_12:17,4,175,99,61_Caucasian_female_neutral_right.jpg,99,cue_right,target_F,target_left,cue_1,1,0.017933820068719797
mGCP-III,123,2018-01-05_12:17,4,176,99,61_Caucasian_female_neutral_left.jpg,99,cue_left,target_E,target_right,cue_1,0,0.1988246128166793
mGCP-III,123,2018-01-05_12:17,4,177,99,61_Caucasian_female_neutral_left.jpg,99,cue_left,target_F,target_left,cue_1,1,0.269293325705803
mGCP-III,123,2018-01-05_12:17,4,178,99,26_Caucasian_female_neutral_right.jpg,99,cue_right,target_E,target_left,cue_1,0,0.30692333553452045
mGCP-III,123,2018-01-05_12:17,4,179,99,26_Caucasian_female_neutral_left.jpg,99,cue_left,target_F,target_left,cue_1,1,0.21694924762414303
mGCP-III,123,2018-01-05_12:17,4,180,99,26_Caucasian_female_neutral_right.jpg,99,cue_right,target_F,target_right,cue_1,1,0.3119682718097465
mGCP-III,123,2018-01-05_12:17,4,181,99,37_Caucasian_female_neutral_right.jpg,99,cue_right,target_F,target_left,cue_1,1,0.28545213415054604
mGCP-III,123,2018-01-05_12:17,4,182,99,37_Caucasian_female_neutral_right.jpg,99,cue_right,target_E,target_right,cue_1,0,0.1292605909111444
mGCP-III,123,2018-01-05_12:17,4,183,99,61_Caucasian_female_neutral_right.jpg,99,cue_right,target_E,target_left,cue_1,0,0.5085197003354551
mGCP-III,123,2018-01-05_12:17,4,184,99,37_Caucasian_female_neutral_left.jpg,99,cue_left,target_E,target_right,cue_1,0,0.04263385970261879
mGCP-III,123,2018-01-05_12:17,4,185,99,37_Caucasian_female_neutral_left.jpg,99,cue_left,target_F,target_right,cue_1,1,0.017055598204024136
mGCP-III,123,2018-01-05_12:17,4,186,99,37_Caucasian_female_neutral_right.jpg,99,cue_right,target_F,target_left,cue_1,1,0.06743819557595998
mGCP-III,123,2018-01-05_12:17,4,187,99,61_Caucasian_female_neutral_left.jpg,99,cue_left,target_F,target_right,cue_1,1,0.22110292500292417
mGCP-III,123,2018-01-05_12:17,4,188,99,37_Caucasian_female_neutral_right.jpg,99,cue_right,target_F,target_right,cue_1,1,0.27847495170135517
mGCP-III,123,2018-01-05_12:17,4,189,99,61_Caucasian_female_neutral_left.jpg,99,cue_left,target_E,target_left,cue_1,0,0.4085707027843455
mGCP-III,123,2018-01-05_12:17,4,190,99,26_Caucasian_female_neutral_left.jpg,99,cue_left,target_E,target_right,cue_1,0,0.4261513378296513
mGCP-III,123,2018-01-05_12:18,4,191,99,37_Caucasian_female_neutral_left.jpg,99,cue_left,target_F,target_left,cue_1,1,0.49535387838841416
mGCP-III,123,2018-01-05_12:18,4,192,99,26_Caucasian_female_neutral_right.jpg,99,cue_right,target_F,target_left,cue_1,1,0.3134655551693868
mGCP-III,123,2018-01-08_12:07,1,1,26_Caucasian_female_neutral_right.jpg,61_Caucasian_female_neutral_right.jpg,37_Caucasian_female_neutral_right.jpg,cue_right,target_F,target_right,cue_3,0,0.3069750573631609
